session,task,run,subj,name,stimuli,number,letter,trial.type,cue,number.resp,letter.resp,award,switch,cue.color,target.color,target.color.orig,incentive,iti,acc,rt,resp,cresp,time.cue.onset.abs,time.target.onset.abs,time.rt.abs,time.scan.start,trial.num,time.cue.onset,time.target.onset,time.rt,time.block1.on,time.block2.on,time.block3.on,time.block1.off,time.block2.off,time.block3.off
bas,cue,1,130518,bas_cue_run1_130518,5H,o,c,c,l,2,2,,,red,black,black,nonincentive,3200,1,755,2,2,150439,154938,155693,119330,1,31.109,35.608,36.363,28.41,274.404,520.414,246.025,492.019,738.013
bas,cue,1,130518,bas_cue_run1_130518,1B,o,c,c,l,2,2,,stay,red,black,black,nonincentive,2000,1,761,2,2,162437,166937,167698,119330,2,43.107,47.607,48.368,28.41,274.404,520.414,246.025,492.019,738.013
bas,cue,1,130518,bas_cue_run1_130518,B2,e,c,i,n,1,2,,switch,red,black,black,nonincentive,2000,1,716,1,1,173235,177735,178451,119330,3,53.905,58.405,59.121,28.41,274.404,520.414,246.025,492.019,738.013
bas,cue,1,130518,bas_cue_run1_130518,2A,e,v,c,n,1,1,,stay,red,black,black,nonincentive,4400,1,550,1,1,184034,188533,189083,119330,4,64.704,69.203,69.753,28.41,274.404,520.414,246.025,492.019,738.013
bas,cue,1,130518,bas_cue_run1_130518,I6,e,v,c,n,1,1,,stay,red,black,black,nonincentive,3200,1,1116,1,1,197232,201748,202864,119330,5,77.902,82.418,83.534,28.41,274.404,520.414,246.025,492.019,738.013
bas,cue,1,130518,bas_cue_run1_130518,B1,o,c,c,n,2,2,,stay,red,black,black,nonincentive,2000,1,715,2,2,209246,213746,214461,119330,6,89.916,94.416,95.131,28.41,274.404,520.414,246.025,492.019,738.013
bas,cue,1,130518,bas_cue_run1_130518,E3,o,v,i,l,2,1,,switch,red,black,green,nonincentive,4400,1,844,1,1,220045,224544,225388,119330,7,100.715,105.214,106.058,28.41,274.404,520.414,246.025,492.019,738.013
bas,cue,1,130518,bas_cue_run1_130518,A2,e,v,c,l,1,1,,stay,red,black,black,nonincentive,4400,1,899,1,1,233243,237742,238641,119330,8,113.913,118.412,119.311,28.41,274.404,520.414,246.025,492.019,738.013
bas,cue,1,130518,bas_cue_run1_130518,D4,e,c,i,l,1,2,,stay,red,black,green,nonincentive,3200,1,942,2,2,246440,250940,251882,119330,9,127.11,131.61,132.552,28.41,274.404,520.414,246.025,492.019,738.013
bas,cue,1,130518,bas_cue_run1_130518,B1,o,c,c,l,2,2,,stay,red,black,black,nonincentive,3200,1,852,2,2,258439,262938,263790,119330,10,139.109,143.608,144.46,28.41,274.404,520.414,246.025,492.019,738.013
bas,cue,1,130518,bas_cue_run1_130518,6I,e,v,c,n,1,1,,switch,red,black,green,nonincentive,4400,1,893,1,1,270437,274936,275829,119330,11,151.107,155.606,156.499,28.41,274.404,520.414,246.025,492.019,738.013
bas,cue,1,130518,bas_cue_run1_130518,D4,e,c,i,n,1,2,,stay,red,black,green,nonincentive,2000,1,1317,1,1,283635,288134,289451,119330,12,164.305,168.804,170.121,28.41,274.404,520.414,246.025,492.019,738.013
bas,cue,1,130518,bas_cue_run1_130518,4D,e,c,i,n,1,2,,stay,red,black,green,nonincentive,2000,1,838,1,1,294433,298932,299770,119330,13,175.103,179.602,180.44,28.41,274.404,520.414,246.025,492.019,738.013
bas,cue,1,130518,bas_cue_run1_130518,A2,e,v,c,n,1,1,,stay,red,black,black,nonincentive,3200,1,1014,1,1,305248,309747,310761,119330,14,185.918,190.417,191.431,28.41,274.404,520.414,246.025,492.019,738.013
bas,cue,1,130518,bas_cue_run1_130518,1B,o,c,c,n,2,2,,stay,red,black,black,nonincentive,4400,1,1010,2,2,317246,321745,322755,119330,15,197.916,202.415,203.425,28.41,274.404,520.414,246.025,492.019,738.013
bas,cue,1,130518,bas_cue_run1_130518,1A,o,v,i,l,2,1,,switch,red,black,black,nonincentive,3200,1,999,1,1,330444,334943,335942,119330,16,211.114,215.613,216.612,28.41,274.404,520.414,246.025,492.019,738.013
bas,cue,1,130518,bas_cue_run1_130518,H5,o,c,c,l,2,2,,stay,red,black,black,nonincentive,4400,1,1149,2,2,342442,346941,348090,119330,17,223.112,227.611,228.76,28.41,274.404,520.414,246.025,492.019,738.013
bas,cue,1,130518,bas_cue_run1_130518,I6,e,v,c,l,1,1,,stay,red,black,green,nonincentive,2000,1,1008,1,1,355640,360139,361147,119330,18,236.31,240.809,241.817,28.41,274.404,520.414,246.025,492.019,738.013
bas,cue,1,130518,bas_cue_run1_130518,E3,o,v,i,n,2,1,,,red,black,green,nonincentive,4400,1,1335,2,2,396433,400932,402267,119330,19,277.103,281.602,282.937,28.41,274.404,520.414,246.025,492.019,738.013
bas,cue,1,130518,bas_cue_run1_130518,6I,e,v,c,n,1,1,,stay,red,black,black,nonincentive,4400,1,699,1,1,409648,414147,414846,119330,20,290.318,294.817,295.516,28.41,274.404,520.414,246.025,492.019,738.013
bas,cue,1,130518,bas_cue_run1_130518,1B,o,c,c,l,2,2,,switch,red,black,black,nonincentive,2000,1,740,2,2,422846,427345,428085,119330,21,303.516,308.015,308.755,28.41,274.404,520.414,246.025,492.019,738.013
bas,cue,1,130518,bas_cue_run1_130518,3E,o,v,i,n,2,1,,switch,red,black,green,nonincentive,2000,1,859,2,2,433644,438143,439002,119330,22,314.314,318.813,319.672,28.41,274.404,520.414,246.025,492.019,738.013
bas,cue,1,130518,bas_cue_run1_130518,E3,o,v,i,n,2,1,,stay,red,black,green,nonincentive,3200,1,1474,2,2,444442,448941,450415,119330,23,325.112,329.611,331.085,28.41,274.404,520.414,246.025,492.019,738.013
bas,cue,1,130518,bas_cue_run1_130518,3E,o,v,i,l,2,1,,switch,red,black,green,nonincentive,2000,1,1289,1,1,456440,460940,462229,119330,24,337.11,341.61,342.899,28.41,274.404,520.414,246.025,492.019,738.013
bas,cue,1,130518,bas_cue_run1_130518,5H,o,c,c,l,2,2,,stay,red,black,black,nonincentive,3200,1,877,2,2,467239,471738,472615,119330,25,347.909,352.408,353.285,28.41,274.404,520.414,246.025,492.019,738.013
bas,cue,1,130518,bas_cue_run1_130518,I6,e,v,c,l,1,1,,stay,red,black,black,nonincentive,4400,1,962,1,1,479237,483736,484698,119330,26,359.907,364.406,365.368,28.41,274.404,520.414,246.025,492.019,738.013
bas,cue,1,130518,bas_cue_run1_130518,2A,e,v,c,l,1,1,,stay,red,black,black,nonincentive,3200,1,1142,1,1,492435,496934,498076,119330,27,373.105,377.604,378.746,28.41,274.404,520.414,246.025,492.019,738.013
bas,cue,1,130518,bas_cue_run1_130518,5H,o,c,c,n,2,2,,switch,red,black,green,nonincentive,4400,1,1012,2,2,504433,508932,509944,119330,28,385.103,389.602,390.614,28.41,274.404,520.414,246.025,492.019,738.013
bas,cue,1,130518,bas_cue_run1_130518,1B,o,c,c,n,2,2,,stay,red,black,black,nonincentive,3200,1,789,2,2,517647,522146,522935,119330,29,398.317,402.816,403.605,28.41,274.404,520.414,246.025,492.019,738.013
bas,cue,1,130518,bas_cue_run1_130518,2A,e,v,c,l,1,1,,switch,red,black,black,nonincentive,2000,1,1237,1,1,529645,534145,535382,119330,30,410.315,414.815,416.052,28.41,274.404,520.414,246.025,492.019,738.013
bas,cue,1,130518,bas_cue_run1_130518,A1,o,v,i,n,2,1,,switch,red,black,black,nonincentive,4400,1,1964,2,2,540444,544943,546907,119330,31,421.114,425.613,427.577,28.41,274.404,520.414,246.025,492.019,738.013
bas,cue,1,130518,bas_cue_run1_130518,B1,o,c,c,l,2,2,,switch,red,black,black,nonincentive,2000,0,988,1,2,553641,558141,559129,119330,32,434.311,438.811,439.799,28.41,274.404,520.414,246.025,492.019,738.013
bas,cue,1,130518,bas_cue_run1_130518,A2,e,v,c,n,1,1,,switch,red,black,black,nonincentive,2000,1,1273,1,1,564440,568939,570212,119330,33,445.11,449.609,450.882,28.41,274.404,520.414,246.025,492.019,738.013
bas,cue,1,130518,bas_cue_run1_130518,2B,e,c,i,l,1,2,,switch,red,black,black,nonincentive,3200,1,1494,2,2,575238,579737,581231,119330,34,455.908,460.407,461.901,28.41,274.404,520.414,246.025,492.019,738.013
bas,cue,1,130518,bas_cue_run1_130518,D4,e,c,i,l,1,2,,stay,red,black,green,nonincentive,3200,1,1073,2,2,587236,591735,592808,119330,35,467.906,472.405,473.478,28.41,274.404,520.414,246.025,492.019,738.013
bas,cue,1,130518,bas_cue_run1_130518,2A,e,v,c,n,1,1,,switch,red,black,black,nonincentive,4400,1,692,1,1,599234,603733,604425,119330,36,479.904,484.403,485.095,28.41,274.404,520.414,246.025,492.019,738.013
bas,cue,1,130518,bas_cue_run1_130518,4D,e,c,i,l,1,2,,,red,black,green,nonincentive,2000,1,1612,2,2,642444,646943,648555,119330,37,523.114,527.613,529.225,28.41,274.404,520.414,246.025,492.019,738.013
bas,cue,1,130518,bas_cue_run1_130518,B1,o,c,c,l,2,2,,stay,red,black,black,nonincentive,2000,1,854,2,2,653242,657742,658596,119330,38,533.912,538.412,539.266,28.41,274.404,520.414,246.025,492.019,738.013
bas,cue,1,130518,bas_cue_run1_130518,A2,e,v,c,n,1,1,,switch,red,black,black,nonincentive,3200,1,771,1,1,664040,668540,669311,119330,39,544.71,549.21,549.981,28.41,274.404,520.414,246.025,492.019,738.013
bas,cue,1,130518,bas_cue_run1_130518,B1,o,c,c,n,2,2,,stay,red,black,black,nonincentive,2000,1,1075,2,2,676039,680538,681613,119330,40,556.709,561.208,562.283,28.41,274.404,520.414,246.025,492.019,738.013
bas,cue,1,130518,bas_cue_run1_130518,1B,o,c,c,l,2,2,,switch,red,black,black,nonincentive,3200,1,1684,2,2,686837,691336,693020,119330,41,567.507,572.006,573.69,28.41,274.404,520.414,246.025,492.019,738.013
bas,cue,1,130518,bas_cue_run1_130518,6I,e,v,c,l,1,1,,stay,red,black,black,nonincentive,3200,1,1419,1,1,698835,703334,704753,119330,42,579.505,584.004,585.423,28.41,274.404,520.414,246.025,492.019,738.013
bas,cue,1,130518,bas_cue_run1_130518,2A,e,v,c,n,1,1,,switch,red,black,black,nonincentive,4400,1,889,1,1,710833,715332,716221,119330,43,591.503,596.002,596.891,28.41,274.404,520.414,246.025,492.019,738.013
bas,cue,1,130518,bas_cue_run1_130518,H5,o,c,c,l,2,2,,switch,red,black,green,nonincentive,4400,1,1276,2,2,724048,728547,729823,119330,44,604.718,609.217,610.493,28.41,274.404,520.414,246.025,492.019,738.013
bas,cue,1,130518,bas_cue_run1_130518,3E,o,v,i,l,2,1,,stay,red,black,green,nonincentive,4400,1,1117,1,1,737245,741745,742862,119330,45,617.915,622.415,623.532,28.41,274.404,520.414,246.025,492.019,738.013
bas,cue,1,130518,bas_cue_run1_130518,1A,o,v,i,n,2,1,,switch,red,black,black,nonincentive,4400,1,1523,2,2,750443,754943,756466,119330,46,631.113,635.613,637.136,28.41,274.404,520.414,246.025,492.019,738.013
bas,cue,1,130518,bas_cue_run1_130518,H5,o,c,c,n,2,2,,stay,red,black,black,nonincentive,2000,1,1082,2,2,763641,768141,769223,119330,47,644.311,648.811,649.893,28.41,274.404,520.414,246.025,492.019,738.013
bas,cue,1,130518,bas_cue_run1_130518,1B,o,c,c,n,2,2,,stay,red,black,black,nonincentive,3200,1,765,2,2,774440,778939,779704,119330,48,655.11,659.609,660.374,28.41,274.404,520.414,246.025,492.019,738.013
bas,cue,1,130518,bas_cue_run1_130518,E3,o,v,i,l,2,1,,switch,red,black,green,nonincentive,4400,1,860,1,1,786438,790937,791797,119330,49,667.108,671.607,672.467,28.41,274.404,520.414,246.025,492.019,738.013
bas,cue,1,130518,bas_cue_run1_130518,3E,o,v,i,n,2,1,,switch,red,black,green,nonincentive,3200,1,1240,2,2,799636,804135,805375,119330,50,680.306,684.805,686.045,28.41,274.404,520.414,246.025,492.019,738.013
bas,cue,1,130518,bas_cue_run1_130518,2A,e,v,c,l,1,1,,switch,red,black,black,nonincentive,2000,1,845,1,1,811634,816133,816978,119330,51,692.304,696.803,697.648,28.41,274.404,520.414,246.025,492.019,738.013
bas,cue,1,130518,bas_cue_run1_130518,4D,e,c,i,n,1,2,,switch,red,black,green,nonincentive,3200,1,958,1,1,822432,826948,827906,119330,52,703.102,707.618,708.576,28.41,274.404,520.414,246.025,492.019,738.013
bas,cue,1,130518,bas_cue_run1_130518,A2,e,v,c,l,1,1,,switch,red,black,black,nonincentive,2000,1,696,1,1,834447,838946,839642,119330,53,715.117,719.616,720.312,28.41,274.404,520.414,246.025,492.019,738.013
bas,cue,1,130518,bas_cue_run1_130518,6I,e,v,c,n,1,1,,switch,red,black,black,nonincentive,4400,1,849,1,1,845245,849744,850593,119330,54,725.915,730.414,731.263,28.41,274.404,520.414,246.025,492.019,738.013
bas,cue,2,130518,bas_cue_run2_130518,3E,o,v,i,n,2,1,,,red,black,green,nonincentive,4400,1,1381,2,2,62664,67164,68545,31537,1,31.127,35.627,37.008,28.428,274.422,520.416,246.026,492.02,738.031
bas,cue,2,130518,bas_cue_run2_130518,E3,o,v,i,l,2,1,,switch,red,black,green,nonincentive,2000,1,667,1,1,75862,80361,81028,31537,2,44.325,48.824,49.491,28.428,274.422,520.416,246.026,492.02,738.031
bas,cue,2,130518,bas_cue_run2_130518,B1,o,c,c,l,2,2,,stay,red,black,black,nonincentive,3200,1,729,2,2,86660,91160,91889,31537,3,55.123,59.623,60.352,28.428,274.422,520.416,246.026,492.02,738.031
bas,cue,2,130518,bas_cue_run2_130518,2A,e,v,c,l,1,1,,stay,red,black,black,nonincentive,4400,1,980,1,1,98659,103158,104138,31537,4,67.122,71.621,72.601,28.428,274.422,520.416,246.026,492.02,738.031
bas,cue,2,130518,bas_cue_run2_130518,A2,e,v,c,l,1,1,,stay,red,black,black,nonincentive,2000,1,1229,1,1,111856,116356,117585,31537,5,80.319,84.819,86.048,28.428,274.422,520.416,246.026,492.02,738.031
bas,cue,2,130518,bas_cue_run2_130518,B2,e,c,i,l,1,2,,stay,red,black,black,nonincentive,3200,1,953,2,2,122655,127154,128107,31537,6,91.118,95.617,96.57,28.428,274.422,520.416,246.026,492.02,738.031
bas,cue,2,130518,bas_cue_run2_130518,H5,o,c,c,l,2,2,,stay,red,black,black,nonincentive,4400,1,798,2,2,134653,139152,139950,31537,7,103.116,107.615,108.413,28.428,274.422,520.416,246.026,492.02,738.031
bas,cue,2,130518,bas_cue_run2_130518,4D,e,c,i,l,1,2,,stay,red,black,green,nonincentive,2000,1,1162,2,2,147851,152350,153512,31537,8,116.314,120.813,121.975,28.428,274.422,520.416,246.026,492.02,738.031
bas,cue,2,130518,bas_cue_run2_130518,D4,e,c,i,n,1,2,,switch,red,black,green,nonincentive,3200,1,1359,1,1,158649,163165,164524,31537,9,127.112,131.628,132.987,28.428,274.422,520.416,246.026,492.02,738.031
bas,cue,2,130518,bas_cue_run2_130518,B1,o,c,c,n,2,2,,stay,red,black,black,nonincentive,3200,1,1012,2,2,170664,175163,176175,31537,10,139.127,143.626,144.638,28.428,274.422,520.416,246.026,492.02,738.031
bas,cue,2,130518,bas_cue_run2_130518,6I,e,v,c,l,1,1,,switch,red,black,green,nonincentive,4400,1,1411,1,1,182662,187161,188572,31537,11,151.125,155.624,157.035,28.428,274.422,520.416,246.026,492.02,738.031
bas,cue,2,130518,bas_cue_run2_130518,2A,e,v,c,n,1,1,,switch,red,black,black,nonincentive,3200,1,754,1,1,195860,200359,201113,31537,12,164.323,168.822,169.576,28.428,274.422,520.416,246.026,492.02,738.031
bas,cue,2,130518,bas_cue_run2_130518,6I,e,v,c,n,1,1,,stay,red,black,black,nonincentive,4400,1,1168,1,1,207858,212357,213525,31537,13,176.321,180.82,181.988,28.428,274.422,520.416,246.026,492.02,738.031
bas,cue,2,130518,bas_cue_run2_130518,E3,o,v,i,n,2,1,,stay,red,black,green,nonincentive,4400,1,1485,2,2,221056,225555,227040,31537,14,189.519,194.018,195.503,28.428,274.422,520.416,246.026,492.02,738.031
bas,cue,2,130518,bas_cue_run2_130518,A2,e,v,c,n,1,1,,stay,red,black,black,nonincentive,2000,1,932,1,1,234254,238753,239685,31537,15,202.717,207.216,208.148,28.428,274.422,520.416,246.026,492.02,738.031
bas,cue,2,130518,bas_cue_run2_130518,1B,o,c,c,n,2,2,,stay,red,black,black,nonincentive,3200,1,930,2,2,245052,249551,250481,31537,16,213.515,218.014,218.944,28.428,274.422,520.416,246.026,492.02,738.031
bas,cue,2,130518,bas_cue_run2_130518,1B,o,c,c,l,2,2,,switch,red,black,black,nonincentive,2000,1,783,2,2,257050,261549,262332,31537,17,225.513,230.012,230.795,28.428,274.422,520.416,246.026,492.02,738.031
bas,cue,2,130518,bas_cue_run2_130518,5H,o,c,c,n,2,2,,switch,red,black,black,nonincentive,2000,1,1327,2,2,267865,272364,273691,31537,18,236.328,240.827,242.154,28.428,274.422,520.416,246.026,492.02,738.031
bas,cue,2,130518,bas_cue_run2_130518,B1,o,c,c,n,2,2,,,red,black,black,nonincentive,3200,1,2121,2,2,308658,313158,315279,31537,19,277.121,281.621,283.742,28.428,274.422,520.416,246.026,492.02,738.031
bas,cue,2,130518,bas_cue_run2_130518,H5,o,c,c,l,2,2,,switch,red,black,black,nonincentive,2000,1,1157,2,2,320656,325156,326313,31537,20,289.119,293.619,294.776,28.428,274.422,520.416,246.026,492.02,738.031
bas,cue,2,130518,bas_cue_run2_130518,1A,o,v,i,n,2,1,,switch,red,black,black,nonincentive,3200,1,1176,2,2,331455,335954,337130,31537,21,299.918,304.417,305.593,28.428,274.422,520.416,246.026,492.02,738.031
bas,cue,2,130518,bas_cue_run2_130518,A2,e,v,c,n,1,1,,stay,red,black,black,nonincentive,3200,1,682,1,1,343453,347952,348634,31537,22,311.916,316.415,317.097,28.428,274.422,520.416,246.026,492.02,738.031
bas,cue,2,130518,bas_cue_run2_130518,D4,e,c,i,n,1,2,,stay,red,black,green,nonincentive,4400,0,949,2,1,355451,359950,360899,31537,23,323.914,328.413,329.362,28.428,274.422,520.416,246.026,492.02,738.031
bas,cue,2,130518,bas_cue_run2_130518,1B,o,c,c,l,2,2,,switch,red,black,black,nonincentive,4400,1,948,2,2,368649,373165,374113,31537,24,337.112,341.628,342.576,28.428,274.422,520.416,246.026,492.02,738.031
bas,cue,2,130518,bas_cue_run2_130518,I6,e,v,c,n,1,1,,switch,red,black,black,nonincentive,2000,1,667,1,1,381863,386363,387030,31537,25,350.326,354.826,355.493,28.428,274.422,520.416,246.026,492.02,738.031
bas,cue,2,130518,bas_cue_run2_130518,5H,o,c,c,l,2,2,,switch,red,black,green,nonincentive,2000,1,1089,2,2,392662,397161,398250,31537,26,361.125,365.624,366.713,28.428,274.422,520.416,246.026,492.02,738.031
bas,cue,2,130518,bas_cue_run2_130518,2A,e,v,c,l,1,1,,stay,red,black,black,nonincentive,4400,1,1191,1,1,403460,407959,409150,31537,27,371.923,376.422,377.613,28.428,274.422,520.416,246.026,492.02,738.031
bas,cue,2,130518,bas_cue_run2_130518,2B,e,c,i,n,1,2,,switch,red,black,black,nonincentive,3200,1,768,1,1,416658,421157,421925,31537,28,385.121,389.62,390.388,28.428,274.422,520.416,246.026,492.02,738.031
bas,cue,2,130518,bas_cue_run2_130518,4D,e,c,i,n,1,2,,stay,red,black,green,nonincentive,3200,1,1783,1,1,428656,433155,434938,31537,29,397.119,401.618,403.401,28.428,274.422,520.416,246.026,492.02,738.031
bas,cue,2,130518,bas_cue_run2_130518,3E,o,v,i,l,2,1,,switch,red,black,green,nonincentive,4400,1,1179,1,1,440654,445153,446332,31537,30,409.117,413.616,414.795,28.428,274.422,520.416,246.026,492.02,738.031
bas,cue,2,130518,bas_cue_run2_130518,D4,e,c,i,l,1,2,,stay,red,black,green,nonincentive,2000,1,1101,2,2,453852,458351,459452,31537,31,422.315,426.814,427.915,28.428,274.422,520.416,246.026,492.02,738.031
bas,cue,2,130518,bas_cue_run2_130518,I6,e,v,c,l,1,1,,stay,red,black,black,nonincentive,4400,1,1031,1,1,464650,469150,470181,31537,32,433.113,437.613,438.644,28.428,274.422,520.416,246.026,492.02,738.031
bas,cue,2,130518,bas_cue_run2_130518,I6,e,v,c,n,1,1,,switch,red,black,green,nonincentive,3200,1,1485,1,1,477865,482364,483849,31537,33,446.328,450.827,452.312,28.428,274.422,520.416,246.026,492.02,738.031
bas,cue,2,130518,bas_cue_run2_130518,B1,o,c,c,l,2,2,,switch,red,black,black,nonincentive,4400,1,978,2,2,489863,494362,495340,31537,34,458.326,462.825,463.803,28.428,274.422,520.416,246.026,492.02,738.031
bas,cue,2,130518,bas_cue_run2_130518,A2,e,v,c,l,1,1,,stay,red,black,black,nonincentive,2000,1,835,1,1,503061,507560,508395,31537,35,471.524,476.023,476.858,28.428,274.422,520.416,246.026,492.02,738.031
bas,cue,2,130518,bas_cue_run2_130518,2A,e,v,c,n,1,1,,switch,red,black,black,nonincentive,2000,1,813,1,1,513859,518358,519171,31537,36,482.322,486.821,487.634,28.428,274.422,520.416,246.026,492.02,738.031
bas,cue,2,130518,bas_cue_run2_130518,2B,e,c,i,l,1,2,,,red,black,black,nonincentive,4400,1,1431,2,2,554652,559152,560583,31537,37,523.115,527.615,529.046,28.428,274.422,520.416,246.026,492.02,738.031
bas,cue,2,130518,bas_cue_run2_130518,6I,e,v,c,n,1,1,,switch,red,black,black,nonincentive,3200,1,1078,1,1,567850,572350,573428,31537,38,536.313,540.813,541.891,28.428,274.422,520.416,246.026,492.02,738.031
bas,cue,2,130518,bas_cue_run2_130518,3E,o,v,i,n,2,1,,stay,red,black,green,nonincentive,2000,1,1052,2,2,579865,584364,585416,31537,39,548.328,552.827,553.879,28.428,274.422,520.416,246.026,492.02,738.031
bas,cue,2,130518,bas_cue_run2_130518,5H,o,c,c,n,2,2,,stay,red,black,black,nonincentive,4400,1,746,2,2,590663,595163,595909,31537,40,559.126,563.626,564.372,28.428,274.422,520.416,246.026,492.02,738.031
bas,cue,2,130518,bas_cue_run2_130518,2A,e,v,c,n,1,1,,stay,red,black,black,nonincentive,4400,1,907,1,1,603861,608361,609268,31537,41,572.324,576.824,577.731,28.428,274.422,520.416,246.026,492.02,738.031
bas,cue,2,130518,bas_cue_run2_130518,1B,o,c,c,n,2,2,,stay,red,black,black,nonincentive,2000,1,908,2,2,617059,621558,622466,31537,42,585.522,590.021,590.929,28.428,274.422,520.416,246.026,492.02,738.031
bas,cue,2,130518,bas_cue_run2_130518,H5,o,c,c,n,2,2,,stay,red,black,green,nonincentive,3200,1,1042,2,2,627857,632357,633399,31537,43,596.32,600.82,601.862,28.428,274.422,520.416,246.026,492.02,738.031
bas,cue,2,130518,bas_cue_run2_130518,4D,e,c,i,l,1,2,,switch,red,black,green,nonincentive,2000,0,846,1,2,639856,644355,645201,31537,44,608.319,612.818,613.664,28.428,274.422,520.416,246.026,492.02,738.031
bas,cue,2,130518,bas_cue_run2_130518,D4,e,c,i,l,1,2,,stay,red,black,green,nonincentive,3200,1,698,2,2,650654,655153,655851,31537,45,619.117,623.616,624.314,28.428,274.422,520.416,246.026,492.02,738.031
bas,cue,2,130518,bas_cue_run2_130518,E3,o,v,i,l,2,1,,stay,red,black,green,nonincentive,4400,1,782,1,1,662652,667151,667933,31537,46,631.115,635.614,636.396,28.428,274.422,520.416,246.026,492.02,738.031
bas,cue,2,130518,bas_cue_run2_130518,B1,o,c,c,l,2,2,,stay,red,black,black,nonincentive,4400,1,1282,2,2,675850,680349,681631,31537,47,644.313,648.812,650.094,28.428,274.422,520.416,246.026,492.02,738.031
bas,cue,2,130518,bas_cue_run2_130518,H5,o,c,c,l,2,2,,stay,red,black,black,nonincentive,3200,1,799,2,2,689064,693564,694363,31537,48,657.527,662.027,662.826,28.428,274.422,520.416,246.026,492.02,738.031
bas,cue,2,130518,bas_cue_run2_130518,B1,o,c,c,n,2,2,,switch,red,black,black,nonincentive,2000,1,895,2,2,701062,705562,706457,31537,49,669.525,674.025,674.92,28.428,274.422,520.416,246.026,492.02,738.031
bas,cue,2,130518,bas_cue_run2_130518,4D,e,c,i,n,1,2,,stay,red,black,green,nonincentive,3200,1,1178,1,1,711861,716360,717538,31537,50,680.324,684.823,686.001,28.428,274.422,520.416,246.026,492.02,738.031
bas,cue,2,130518,bas_cue_run2_130518,A2,e,v,c,l,1,1,,switch,red,black,black,nonincentive,2000,1,978,1,1,723859,728358,729336,31537,51,692.322,696.821,697.799,28.428,274.422,520.416,246.026,492.02,738.031
bas,cue,2,130518,bas_cue_run2_130518,A1,o,v,i,l,2,1,,stay,red,black,black,nonincentive,3200,1,951,1,1,734657,739156,740107,31537,52,703.12,707.619,708.57,28.428,274.422,520.416,246.026,492.02,738.031
bas,cue,2,130518,bas_cue_run2_130518,A2,e,v,c,n,1,1,,switch,red,black,black,nonincentive,4400,1,1066,1,1,746655,751154,752220,31537,53,715.118,719.617,720.683,28.428,274.422,520.416,246.026,492.02,738.031
bas,cue,2,130518,bas_cue_run2_130518,1B,o,c,c,l,2,2,,switch,red,black,black,nonincentive,2000,1,863,2,2,759853,764352,765215,31537,54,728.316,732.815,733.678,28.428,274.422,520.416,246.026,492.02,738.031
pro,cue,1,130518,pro_cue_run1_130518,A2,e,v,c,l,1,1,,,red,black,black,nonincentive,3200,1,585,1,1,160797,165296,165881,129683,1,31.114,35.613,36.198,28.414,274.425,520.419,246.029,492.023,738.034
pro,cue,1,130518,pro_cue_run1_130518,E3,o,v,i,l,2,1,yes,stay,green,black,green,incentive,2000,1,636,1,1,172795,177294,177930,129683,2,43.112,47.611,48.247,28.414,274.425,520.419,246.029,492.023,738.034
pro,cue,1,130518,pro_cue_run1_130518,I6,e,v,c,n,1,1,,switch,red,black,black,nonincentive,3200,1,1210,1,1,183610,188109,189319,129683,3,53.927,58.426,59.636,28.414,274.425,520.419,246.029,492.023,738.034
pro,cue,1,130518,pro_cue_run1_130518,6I,e,v,c,n,1,1,yes,stay,green,black,green,incentive,4400,1,862,1,1,195608,200107,200969,129683,4,65.925,70.424,71.286,28.414,274.425,520.419,246.029,492.023,738.034
pro,cue,1,130518,pro_cue_run1_130518,H5,o,c,c,l,2,2,,switch,red,black,black,nonincentive,2000,1,888,2,2,208806,213305,214193,129683,5,79.123,83.622,84.51,28.414,274.425,520.419,246.029,492.023,738.034
pro,cue,1,130518,pro_cue_run1_130518,1A,o,v,i,l,2,1,,stay,red,black,black,nonincentive,3200,1,695,1,1,219604,224103,224798,129683,6,89.921,94.42,95.115,28.414,274.425,520.419,246.029,492.023,738.034
pro,cue,1,130518,pro_cue_run1_130518,2A,e,v,c,n,1,1,,switch,red,black,black,nonincentive,4400,1,509,1,1,231602,236101,236610,129683,7,101.919,106.418,106.927,28.414,274.425,520.419,246.029,492.023,738.034
pro,cue,1,130518,pro_cue_run1_130518,1B,o,c,c,l,2,2,,switch,red,black,black,nonincentive,2000,1,672,2,2,244800,249299,249971,129683,8,115.117,119.616,120.288,28.414,274.425,520.419,246.029,492.023,738.034
pro,cue,1,130518,pro_cue_run1_130518,D4,e,c,i,l,1,2,yes,stay,green,black,green,incentive,4400,1,762,2,2,255598,260098,260860,129683,9,125.915,130.415,131.177,28.414,274.425,520.419,246.029,492.023,738.034
pro,cue,1,130518,pro_cue_run1_130518,B1,o,c,c,n,2,2,,switch,red,black,black,nonincentive,4400,1,659,2,2,268796,273295,273954,129683,10,139.113,143.612,144.271,28.414,274.425,520.419,246.029,492.023,738.034
pro,cue,1,130518,pro_cue_run1_130518,4D,e,c,i,n,1,2,yes,stay,green,black,green,incentive,2000,1,668,1,1,281994,286510,287178,129683,11,152.311,156.827,157.495,28.414,274.425,520.419,246.029,492.023,738.034
pro,cue,1,130518,pro_cue_run1_130518,A2,e,v,c,n,1,1,,stay,red,black,black,nonincentive,4400,1,763,1,1,292809,297308,298071,129683,12,163.126,167.625,168.388,28.414,274.425,520.419,246.029,492.023,738.034
pro,cue,1,130518,pro_cue_run1_130518,B2,e,c,i,n,1,2,,stay,red,black,black,nonincentive,3200,1,601,1,1,306007,310506,311107,129683,13,176.324,180.823,181.424,28.414,274.425,520.419,246.029,492.023,738.034
pro,cue,1,130518,pro_cue_run1_130518,B1,o,c,c,l,2,2,,switch,red,black,black,nonincentive,2000,1,640,2,2,318005,322504,323144,129683,14,188.322,192.821,193.461,28.414,274.425,520.419,246.029,492.023,738.034
pro,cue,1,130518,pro_cue_run1_130518,5H,o,c,c,l,2,2,,stay,red,black,black,nonincentive,4400,1,553,2,2,328803,333303,333856,129683,15,199.12,203.62,204.173,28.414,274.425,520.419,246.029,492.023,738.034
pro,cue,1,130518,pro_cue_run1_130518,1B,o,c,c,n,2,2,,switch,red,black,black,nonincentive,3200,1,616,2,2,342001,346500,347116,129683,16,212.318,216.817,217.433,28.414,274.425,520.419,246.029,492.023,738.034
pro,cue,1,130518,pro_cue_run1_130518,D4,e,c,i,n,1,2,yes,stay,green,black,green,incentive,3200,1,863,1,1,353999,358499,359362,129683,17,224.316,228.816,229.679,28.414,274.425,520.419,246.029,492.023,738.034
pro,cue,1,130518,pro_cue_run1_130518,I6,e,v,c,l,1,1,yes,switch,green,black,green,incentive,2000,1,814,1,1,365997,370497,371311,129683,18,236.314,240.814,241.628,28.414,274.425,520.419,246.029,492.023,738.034
pro,cue,1,130518,pro_cue_run1_130518,5H,o,c,c,n,2,2,yes,,green,black,green,incentive,3200,1,740,2,2,406807,411307,412047,129683,19,277.124,281.624,282.364,28.414,274.425,520.419,246.029,492.023,738.034
pro,cue,1,130518,pro_cue_run1_130518,E3,o,v,i,n,2,1,yes,stay,green,black,green,incentive,4400,1,917,2,2,418806,423305,424222,129683,20,289.123,293.622,294.539,28.414,274.425,520.419,246.029,492.023,738.034
pro,cue,1,130518,pro_cue_run1_130518,5H,o,c,c,l,2,2,,switch,red,black,black,nonincentive,4400,1,782,2,2,432003,436503,437285,129683,21,302.32,306.82,307.602,28.414,274.425,520.419,246.029,492.023,738.034
pro,cue,1,130518,pro_cue_run1_130518,2B,e,c,i,l,1,2,,stay,red,black,black,nonincentive,4400,1,865,2,2,445201,449701,450566,129683,22,315.518,320.018,320.883,28.414,274.425,520.419,246.029,492.023,738.034
pro,cue,1,130518,pro_cue_run1_130518,2A,e,v,c,l,1,1,,stay,red,black,black,nonincentive,2000,1,1096,1,1,458399,462898,463994,129683,23,328.716,333.215,334.311,28.414,274.425,520.419,246.029,492.023,738.034
pro,cue,1,130518,pro_cue_run1_130518,I6,e,v,c,l,1,1,,stay,red,black,black,nonincentive,3200,1,1043,1,1,469198,473697,474740,129683,24,339.515,344.014,345.057,28.414,274.425,520.419,246.029,492.023,738.034
pro,cue,1,130518,pro_cue_run1_130518,A2,e,v,c,n,1,1,,switch,red,black,black,nonincentive,2000,1,549,1,1,481196,485695,486244,129683,25,351.513,356.012,356.561,28.414,274.425,520.419,246.029,492.023,738.034
pro,cue,1,130518,pro_cue_run1_130518,B1,o,c,c,l,2,2,,switch,red,black,black,nonincentive,3200,1,652,2,2,491994,496510,497162,129683,26,362.311,366.827,367.479,28.414,274.425,520.419,246.029,492.023,738.034
pro,cue,1,130518,pro_cue_run1_130518,3E,o,v,i,n,2,1,yes,switch,green,black,green,incentive,2000,1,699,2,2,504009,508508,509207,129683,27,374.326,378.825,379.524,28.414,274.425,520.419,246.029,492.023,738.034
pro,cue,1,130518,pro_cue_run1_130518,2A,e,v,c,l,1,1,,switch,red,black,black,nonincentive,4400,1,575,1,1,514807,519306,519881,129683,28,385.124,389.623,390.198,28.414,274.425,520.419,246.029,492.023,738.034
pro,cue,1,130518,pro_cue_run1_130518,6I,e,v,c,n,1,1,,switch,red,black,black,nonincentive,2000,1,816,1,1,528005,532504,533320,129683,29,398.322,402.821,403.637,28.414,274.425,520.419,246.029,492.023,738.034
pro,cue,1,130518,pro_cue_run1_130518,E3,o,v,i,n,2,1,yes,stay,green,black,green,incentive,4400,1,875,2,2,538803,543302,544177,129683,30,409.12,413.619,414.494,28.414,274.425,520.419,246.029,492.023,738.034
pro,cue,1,130518,pro_cue_run1_130518,1B,o,c,c,n,2,2,,stay,red,black,black,nonincentive,4400,1,687,2,2,552001,556500,557187,129683,31,422.318,426.817,427.504,28.414,274.425,520.419,246.029,492.023,738.034
pro,cue,1,130518,pro_cue_run1_130518,D4,e,c,i,l,1,2,yes,switch,green,black,green,incentive,2000,1,729,2,2,565199,569698,570427,129683,32,435.516,440.015,440.744,28.414,274.425,520.419,246.029,492.023,738.034
pro,cue,1,130518,pro_cue_run1_130518,3E,o,v,i,l,2,1,yes,stay,green,black,green,incentive,3200,1,815,1,1,575997,580496,581311,129683,33,446.314,450.813,451.628,28.414,274.425,520.419,246.029,492.023,738.034
pro,cue,1,130518,pro_cue_run1_130518,A1,o,v,i,n,2,1,,switch,red,black,black,nonincentive,3200,1,820,2,2,587995,592494,593314,129683,34,458.312,462.811,463.631,28.414,274.425,520.419,246.029,492.023,738.034
pro,cue,1,130518,pro_cue_run1_130518,2A,e,v,c,n,1,1,,stay,red,black,black,nonincentive,3200,1,930,1,1,600010,604509,605439,129683,35,470.327,474.826,475.756,28.414,274.425,520.419,246.029,492.023,738.034
pro,cue,1,130518,pro_cue_run1_130518,1B,o,c,c,l,2,2,,switch,red,black,black,nonincentive,2000,1,630,2,2,612008,616507,617137,129683,36,482.325,486.824,487.454,28.414,274.425,520.419,246.029,492.023,738.034
pro,cue,1,130518,pro_cue_run1_130518,B1,o,c,c,l,2,2,,,red,black,black,nonincentive,3200,1,927,2,2,652802,657301,658228,129683,37,523.119,527.618,528.545,28.414,274.425,520.419,246.029,492.023,738.034
pro,cue,1,130518,pro_cue_run1_130518,2A,e,v,c,n,1,1,,switch,red,black,black,nonincentive,4400,1,726,1,1,664800,669299,670025,129683,38,535.117,539.616,540.342,28.414,274.425,520.419,246.029,492.023,738.034
pro,cue,1,130518,pro_cue_run1_130518,1B,o,c,c,l,2,2,,switch,red,black,black,nonincentive,2000,1,794,2,2,677997,682497,683291,129683,39,548.314,552.814,553.608,28.414,274.425,520.419,246.029,492.023,738.034
pro,cue,1,130518,pro_cue_run1_130518,6I,e,v,c,n,1,1,,switch,red,black,black,nonincentive,3200,1,815,1,1,688796,693295,694110,129683,40,559.113,563.612,564.427,28.414,274.425,520.419,246.029,492.023,738.034
pro,cue,1,130518,pro_cue_run1_130518,E3,o,v,i,l,2,1,yes,switch,green,black,green,incentive,3200,1,660,1,1,700794,705310,705970,129683,41,571.111,575.627,576.287,28.414,274.425,520.419,246.029,492.023,738.034
pro,cue,1,130518,pro_cue_run1_130518,H5,o,c,c,n,2,2,,switch,red,black,black,nonincentive,2000,1,754,2,2,712809,717308,718062,129683,42,583.126,587.625,588.379,28.414,274.425,520.419,246.029,492.023,738.034
pro,cue,1,130518,pro_cue_run1_130518,1B,o,c,c,n,2,2,,stay,red,black,black,nonincentive,4400,1,849,2,2,723607,728106,728955,129683,43,593.924,598.423,599.272,28.414,274.425,520.419,246.029,492.023,738.034
pro,cue,1,130518,pro_cue_run1_130518,4D,e,c,i,n,1,2,yes,stay,green,black,green,incentive,2000,1,678,1,1,736805,741304,741982,129683,44,607.122,611.621,612.299,28.414,274.425,520.419,246.029,492.023,738.034
pro,cue,1,130518,pro_cue_run1_130518,A2,e,v,c,n,1,1,,stay,red,black,black,nonincentive,4400,1,674,1,1,747603,752102,752776,129683,45,617.92,622.419,623.093,28.414,274.425,520.419,246.029,492.023,738.034
pro,cue,1,130518,pro_cue_run1_130518,6I,e,v,c,l,1,1,,switch,red,black,black,nonincentive,3200,1,934,1,1,760801,765300,766234,129683,46,631.118,635.617,636.551,28.414,274.425,520.419,246.029,492.023,738.034
pro,cue,1,130518,pro_cue_run1_130518,4D,e,c,i,l,1,2,error,stay,green,black,green,incentive,2000,0,729,1,2,772799,777298,778027,129683,47,643.116,647.615,648.344,28.414,274.425,520.419,246.029,492.023,738.034
pro,cue,1,130518,pro_cue_run1_130518,3E,o,v,i,n,2,1,yes,switch,green,black,green,incentive,4400,1,828,2,2,783597,788097,788925,129683,48,653.914,658.414,659.242,28.414,274.425,520.419,246.029,492.023,738.034
pro,cue,1,130518,pro_cue_run1_130518,H5,o,c,c,l,2,2,yes,switch,green,black,green,incentive,2000,1,636,2,2,796795,801294,801930,129683,49,667.112,671.611,672.247,28.414,274.425,520.419,246.029,492.023,738.034
pro,cue,1,130518,pro_cue_run1_130518,B1,o,c,c,n,2,2,,switch,red,black,black,nonincentive,3200,1,537,2,2,807610,812109,812646,129683,50,677.927,682.426,682.963,28.414,274.425,520.419,246.029,492.023,738.034
pro,cue,1,130518,pro_cue_run1_130518,A2,e,v,c,l,1,1,,switch,red,black,black,nonincentive,3200,1,681,1,1,819608,824108,824789,129683,51,689.925,694.425,695.106,28.414,274.425,520.419,246.029,492.023,738.034
pro,cue,1,130518,pro_cue_run1_130518,1A,o,v,i,n,2,1,,switch,red,black,black,nonincentive,2000,1,765,2,2,831606,836106,836871,129683,52,701.923,706.423,707.188,28.414,274.425,520.419,246.029,492.023,738.034
pro,cue,1,130518,pro_cue_run1_130518,3E,o,v,i,l,2,1,error,switch,green,black,green,incentive,4400,0,870,2,1,842405,846904,847774,129683,53,712.722,717.221,718.091,28.414,274.425,520.419,246.029,492.023,738.034
pro,cue,1,130518,pro_cue_run1_130518,2A,e,v,c,l,1,1,,stay,red,black,black,nonincentive,4400,1,858,1,1,855602,860102,860960,129683,54,725.919,730.419,731.277,28.414,274.425,520.419,246.029,492.023,738.034
pro,cue,2,130518,pro_cue_run2_130518,A2,e,v,c,n,1,1,,,red,black,black,nonincentive,3200,1,672,1,1,86763,91262,91934,55648,1,31.115,35.614,36.286,28.415,274.409,520.42,246.014,492.024,738.019
pro,cue,2,130518,pro_cue_run2_130518,D4,e,c,i,n,1,2,yes,stay,green,black,green,incentive,2000,1,800,1,1,98761,103260,104060,55648,2,43.113,47.612,48.412,28.415,274.409,520.42,246.014,492.024,738.019
pro,cue,2,130518,pro_cue_run2_130518,4D,e,c,i,l,1,2,yes,switch,green,black,green,incentive,4400,1,1017,2,2,109559,114058,115075,55648,3,53.911,58.41,59.427,28.415,274.409,520.42,246.014,492.024,738.019
pro,cue,2,130518,pro_cue_run2_130518,5H,o,c,c,n,2,2,,switch,red,black,black,nonincentive,4400,1,686,2,2,122757,127256,127942,55648,4,67.109,71.608,72.294,28.415,274.409,520.42,246.014,492.024,738.019
pro,cue,2,130518,pro_cue_run2_130518,B1,o,c,c,n,2,2,,stay,red,black,black,nonincentive,2000,1,752,2,2,135955,140454,141206,55648,5,80.307,84.806,85.558,28.415,274.409,520.42,246.014,492.024,738.019
pro,cue,2,130518,pro_cue_run2_130518,1B,o,c,c,n,2,2,,stay,red,black,black,nonincentive,3200,1,863,2,2,146770,151269,152132,55648,6,91.122,95.621,96.484,28.415,274.409,520.42,246.014,492.024,738.019
pro,cue,2,130518,pro_cue_run2_130518,2A,e,v,c,l,1,1,,switch,red,black,black,nonincentive,3200,1,707,1,1,158768,163267,163974,55648,7,103.12,107.619,108.326,28.415,274.409,520.42,246.014,492.024,738.019
pro,cue,2,130518,pro_cue_run2_130518,B2,e,c,i,l,1,2,,stay,red,black,black,nonincentive,2000,1,836,2,2,170766,175265,176101,55648,8,115.118,119.617,120.453,28.415,274.409,520.42,246.014,492.024,738.019
pro,cue,2,130518,pro_cue_run2_130518,E3,o,v,i,n,2,1,yes,switch,green,black,green,incentive,4400,1,1019,2,2,181564,186064,187083,55648,9,125.916,130.416,131.435,28.415,274.409,520.42,246.014,492.024,738.019
pro,cue,2,130518,pro_cue_run2_130518,1B,o,c,c,l,2,2,,switch,red,black,black,nonincentive,2000,1,601,2,2,194762,199261,199862,55648,10,139.114,143.613,144.214,28.415,274.409,520.42,246.014,492.024,738.019
pro,cue,2,130518,pro_cue_run2_130518,E3,o,v,i,l,2,1,yes,stay,green,black,green,incentive,3200,1,595,1,1,205560,210060,210655,55648,11,149.912,154.412,155.007,28.415,274.409,520.42,246.014,492.024,738.019
pro,cue,2,130518,pro_cue_run2_130518,6I,e,v,c,l,1,1,yes,stay,green,black,green,incentive,4400,1,733,1,1,217559,222058,222791,55648,12,161.911,166.41,167.143,28.415,274.409,520.42,246.014,492.024,738.019
pro,cue,2,130518,pro_cue_run2_130518,3E,o,v,i,n,2,1,too.slow,switch,green,black,green,incentive,3200,1,1144,2,2,230756,235256,236400,55648,13,175.108,179.608,180.752,28.415,274.409,520.42,246.014,492.024,738.019
pro,cue,2,130518,pro_cue_run2_130518,B1,o,c,c,l,2,2,,switch,red,black,black,nonincentive,2000,1,806,2,2,242755,247254,248060,55648,14,187.107,191.606,192.412,28.415,274.409,520.42,246.014,492.024,738.019
pro,cue,2,130518,pro_cue_run2_130518,2A,e,v,c,n,1,1,,switch,red,black,black,nonincentive,3200,1,551,1,1,253569,258069,258620,55648,15,197.921,202.421,202.972,28.415,274.409,520.42,246.014,492.024,738.019
pro,cue,2,130518,pro_cue_run2_130518,A2,e,v,c,l,1,1,,switch,red,black,black,nonincentive,2000,1,807,1,1,265568,270067,270874,55648,16,209.92,214.419,215.226,28.415,274.409,520.42,246.014,492.024,738.019
pro,cue,2,130518,pro_cue_run2_130518,6I,e,v,c,n,1,1,,switch,red,black,black,nonincentive,4400,1,879,1,1,276366,280865,281744,55648,17,220.718,225.217,226.096,28.415,274.409,520.42,246.014,492.024,738.019
pro,cue,2,130518,pro_cue_run2_130518,H5,o,c,c,l,2,2,,switch,red,black,black,nonincentive,4400,1,758,2,2,289564,294063,294821,55648,18,233.916,238.415,239.173,28.415,274.409,520.42,246.014,492.024,738.019
pro,cue,2,130518,pro_cue_run2_130518,D4,e,c,i,l,1,2,yes,,green,black,green,incentive,3200,1,612,2,2,332757,337256,337868,55648,19,277.109,281.608,282.22,28.415,274.409,520.42,246.014,492.024,738.019
pro,cue,2,130518,pro_cue_run2_130518,5H,o,c,c,l,2,2,yes,stay,green,black,green,incentive,2000,1,619,2,2,344755,349254,349873,55648,20,289.107,293.606,294.225,28.415,274.409,520.42,246.014,492.024,738.019
pro,cue,2,130518,pro_cue_run2_130518,2A,e,v,c,n,1,1,,switch,red,black,black,nonincentive,3200,1,633,1,1,355570,360069,360702,55648,21,299.922,304.421,305.054,28.415,274.409,520.42,246.014,492.024,738.019
pro,cue,2,130518,pro_cue_run2_130518,4D,e,c,i,n,1,2,yes,stay,green,black,green,incentive,4400,1,736,1,1,367568,372067,372803,55648,22,311.92,316.419,317.155,28.415,274.409,520.42,246.014,492.024,738.019
pro,cue,2,130518,pro_cue_run2_130518,2B,e,c,i,n,1,2,,stay,red,black,black,nonincentive,4400,1,546,1,1,380766,385265,385811,55648,23,325.118,329.617,330.163,28.415,274.409,520.42,246.014,492.024,738.019
pro,cue,2,130518,pro_cue_run2_130518,1B,o,c,c,l,2,2,,switch,red,black,black,nonincentive,2000,1,568,2,2,393964,398463,399031,55648,24,338.316,342.815,343.383,28.415,274.409,520.42,246.014,492.024,738.019
pro,cue,2,130518,pro_cue_run2_130518,I6,e,v,c,l,1,1,,stay,red,black,black,nonincentive,3200,1,733,1,1,404762,409261,409994,55648,25,349.114,353.613,354.346,28.415,274.409,520.42,246.014,492.024,738.019
pro,cue,2,130518,pro_cue_run2_130518,I6,e,v,c,n,1,1,yes,switch,green,black,green,incentive,4400,1,498,1,1,416760,421259,421757,55648,26,361.112,365.611,366.109,28.415,274.409,520.42,246.014,492.024,738.019
pro,cue,2,130518,pro_cue_run2_130518,A2,e,v,c,l,1,1,,switch,red,black,black,nonincentive,2000,1,892,1,1,429958,434457,435349,55648,27,374.31,378.809,379.701,28.415,274.409,520.42,246.014,492.024,738.019
pro,cue,2,130518,pro_cue_run2_130518,B1,o,c,c,l,2,2,,stay,red,black,black,nonincentive,3200,1,907,2,2,440756,445256,446163,55648,28,385.108,389.608,390.515,28.415,274.409,520.42,246.014,492.024,738.019
pro,cue,2,130518,pro_cue_run2_130518,3E,o,v,i,l,2,1,yes,stay,green,black,green,incentive,2000,1,735,1,1,452754,457270,458005,55648,29,397.106,401.622,402.357,28.415,274.409,520.42,246.014,492.024,738.019
pro,cue,2,130518,pro_cue_run2_130518,I6,e,v,c,n,1,1,,switch,red,black,black,nonincentive,3200,1,587,1,1,463569,468069,468656,55648,30,407.921,412.421,413.008,28.415,274.409,520.42,246.014,492.024,738.019
pro,cue,2,130518,pro_cue_run2_130518,2A,e,v,c,l,1,1,,switch,red,black,black,nonincentive,4400,1,428,1,1,475567,480067,480495,55648,31,419.919,424.419,424.847,28.415,274.409,520.42,246.014,492.024,738.019
pro,cue,2,130518,pro_cue_run2_130518,1A,o,v,i,n,2,1,,switch,red,black,black,nonincentive,2000,0,568,1,2,488765,493265,493833,55648,32,433.117,437.617,438.185,28.415,274.409,520.42,246.014,492.024,738.019
pro,cue,2,130518,pro_cue_run2_130518,H5,o,c,c,l,2,2,,switch,red,black,black,nonincentive,3200,1,942,2,2,499564,504063,505005,55648,33,443.916,448.415,449.357,28.415,274.409,520.42,246.014,492.024,738.019
pro,cue,2,130518,pro_cue_run2_130518,A2,e,v,c,n,1,1,,switch,red,black,black,nonincentive,4400,1,527,1,1,511562,516061,516588,55648,34,455.914,460.413,460.94,28.415,274.409,520.42,246.014,492.024,738.019
pro,cue,2,130518,pro_cue_run2_130518,D4,e,c,i,n,1,2,yes,stay,green,black,green,incentive,4400,1,734,1,1,524759,529259,529993,55648,35,469.111,473.611,474.345,28.415,274.409,520.42,246.014,492.024,738.019
pro,cue,2,130518,pro_cue_run2_130518,B1,o,c,c,n,2,2,,stay,red,black,black,nonincentive,2000,1,540,2,2,537957,542457,542997,55648,36,482.309,486.809,487.349,28.415,274.409,520.42,246.014,492.024,738.019
pro,cue,2,130518,pro_cue_run2_130518,2B,e,c,i,l,1,2,,,red,black,black,nonincentive,3200,1,693,2,2,578768,583267,583960,55648,37,523.12,527.619,528.312,28.415,274.409,520.42,246.014,492.024,738.019
pro,cue,2,130518,pro_cue_run2_130518,D4,e,c,i,l,1,2,yes,stay,green,black,green,incentive,4400,1,892,2,2,590766,595265,596157,55648,38,535.118,539.617,540.509,28.415,274.409,520.42,246.014,492.024,738.019
pro,cue,2,130518,pro_cue_run2_130518,5H,o,c,c,n,2,2,,switch,red,black,black,nonincentive,2000,1,818,2,2,603963,608463,609281,55648,39,548.315,552.815,553.633,28.415,274.409,520.42,246.014,492.024,738.019
pro,cue,2,130518,pro_cue_run2_130518,1B,o,c,c,l,2,2,,switch,red,black,black,nonincentive,3200,1,690,2,2,614762,619261,619951,55648,40,559.114,563.613,564.303,28.415,274.409,520.42,246.014,492.024,738.019
pro,cue,2,130518,pro_cue_run2_130518,A2,e,v,c,l,1,1,,stay,red,black,black,nonincentive,4400,1,741,1,1,626760,631259,632000,55648,41,571.112,575.611,576.352,28.415,274.409,520.42,246.014,492.024,738.019
pro,cue,2,130518,pro_cue_run2_130518,2A,e,v,c,n,1,1,,switch,red,black,black,nonincentive,2000,1,563,1,1,639958,644457,645020,55648,42,584.31,588.809,589.372,28.415,274.409,520.42,246.014,492.024,738.019
pro,cue,2,130518,pro_cue_run2_130518,H5,o,c,c,l,2,2,,switch,red,black,black,nonincentive,3200,1,723,2,2,650756,655255,655978,55648,43,595.108,599.607,600.33,28.415,274.409,520.42,246.014,492.024,738.019
pro,cue,2,130518,pro_cue_run2_130518,1B,o,c,c,n,2,2,,switch,red,black,black,nonincentive,4400,1,1028,2,2,662754,667270,668298,55648,44,607.106,611.622,612.65,28.415,274.409,520.42,246.014,492.024,738.019
pro,cue,2,130518,pro_cue_run2_130518,A1,o,v,i,l,2,1,,switch,red,black,black,nonincentive,2000,1,540,1,1,675969,680468,681008,55648,45,620.321,624.82,625.36,28.415,274.409,520.42,246.014,492.024,738.019
pro,cue,2,130518,pro_cue_run2_130518,E3,o,v,i,l,2,1,yes,stay,green,black,green,incentive,2000,1,678,1,1,686767,691266,691944,55648,46,631.119,635.618,636.296,28.415,274.409,520.42,246.014,492.024,738.019
pro,cue,2,130518,pro_cue_run2_130518,4D,e,c,i,n,1,2,yes,switch,green,black,green,incentive,2000,1,898,1,1,697565,702065,702963,55648,47,641.917,646.417,647.315,28.415,274.409,520.42,246.014,492.024,738.019
pro,cue,2,130518,pro_cue_run2_130518,B1,o,c,c,l,2,2,,switch,red,black,black,nonincentive,3200,1,712,2,2,708364,712863,713575,55648,48,652.716,657.215,657.927,28.415,274.409,520.42,246.014,492.024,738.019
pro,cue,2,130518,pro_cue_run2_130518,A2,e,v,c,n,1,1,,switch,red,black,black,nonincentive,3200,1,492,1,1,720362,724861,725353,55648,49,664.714,669.213,669.705,28.415,274.409,520.42,246.014,492.024,738.019
pro,cue,2,130518,pro_cue_run2_130518,H5,o,c,c,n,2,2,yes,stay,green,black,green,incentive,4400,1,632,2,2,732360,736859,737491,55648,50,676.712,681.211,681.843,28.415,274.409,520.42,246.014,492.024,738.019
pro,cue,2,130518,pro_cue_run2_130518,B1,o,c,c,n,2,2,,stay,red,black,black,nonincentive,3200,1,566,2,2,745558,750057,750623,55648,51,689.91,694.409,694.975,28.415,274.409,520.42,246.014,492.024,738.019
pro,cue,2,130518,pro_cue_run2_130518,3E,o,v,i,n,2,1,yes,stay,green,black,green,incentive,4400,1,881,2,2,757556,762055,762936,55648,52,701.908,706.407,707.288,28.415,274.409,520.42,246.014,492.024,738.019
pro,cue,2,130518,pro_cue_run2_130518,6I,e,v,c,n,1,1,,stay,red,black,black,nonincentive,2000,1,610,1,1,770754,775270,775880,55648,53,715.106,719.622,720.232,28.415,274.409,520.42,246.014,492.024,738.019
pro,cue,2,130518,pro_cue_run2_130518,4D,e,c,i,l,1,2,yes,switch,green,black,green,incentive,4400,1,883,2,2,781568,786068,786951,55648,54,725.92,730.42,731.303,28.415,274.409,520.42,246.014,492.024,738.019
rea,cue,1,130518,rea_cue_run1_130518,5H,o,c,c,l,2,2,,,red,black,black,nonincentive,3200,1,925,2,2,157133,161632,162557,126016,1,31.117,35.616,36.541,28.417,274.428,520.422,246.033,492.027,738.038
rea,cue,1,130518,rea_cue_run1_130518,B2,e,c,i,n,1,2,,switch,red,black,black,nonincentive,2000,1,766,1,1,169131,173647,174413,126016,2,43.115,47.631,48.397,28.417,274.428,520.422,246.033,492.027,738.038
rea,cue,1,130518,rea_cue_run1_130518,4D,e,c,i,n,1,2,yes,stay,red,green,green,incentive,3200,1,555,1,1,179946,184445,185000,126016,3,53.93,58.429,58.984,28.417,274.428,520.422,246.033,492.027,738.038
rea,cue,1,130518,rea_cue_run1_130518,H5,o,c,c,l,2,2,,switch,red,black,black,nonincentive,4400,1,593,2,2,191944,196443,197036,126016,4,65.928,70.427,71.02,28.417,274.428,520.422,246.033,492.027,738.038
rea,cue,1,130518,rea_cue_run1_130518,A2,e,v,c,l,1,1,,stay,red,black,black,nonincentive,4400,1,750,1,1,205142,209641,210391,126016,5,79.126,83.625,84.375,28.417,274.428,520.422,246.033,492.027,738.038
rea,cue,1,130518,rea_cue_run1_130518,I6,e,v,c,n,1,1,,switch,red,black,black,nonincentive,4400,1,632,1,1,218340,222839,223471,126016,6,92.324,96.823,97.455,28.417,274.428,520.422,246.033,492.027,738.038
rea,cue,1,130518,rea_cue_run1_130518,1A,o,v,i,l,2,1,,switch,red,black,black,nonincentive,2000,1,602,1,1,231538,236037,236639,126016,7,105.522,110.021,110.623,28.417,274.428,520.422,246.033,492.027,738.038
rea,cue,1,130518,rea_cue_run1_130518,I6,e,v,c,l,1,1,yes,stay,red,green,green,incentive,2000,1,924,1,1,242336,246835,247759,126016,8,116.32,120.819,121.743,28.417,274.428,520.422,246.033,492.027,738.038
rea,cue,1,130518,rea_cue_run1_130518,D4,e,c,i,n,1,2,yes,switch,red,green,green,incentive,3200,1,696,1,1,253134,257634,258330,126016,9,127.118,131.618,132.314,28.417,274.428,520.422,246.033,492.027,738.038
rea,cue,1,130518,rea_cue_run1_130518,E3,o,v,i,l,2,1,yes,switch,red,green,green,incentive,3200,1,596,1,1,265132,269632,270228,126016,10,139.116,143.616,144.212,28.417,274.428,520.422,246.033,492.027,738.038
rea,cue,1,130518,rea_cue_run1_130518,1B,o,c,c,n,2,2,,switch,red,black,black,nonincentive,3200,1,674,2,2,277131,281646,282320,126016,11,151.115,155.63,156.304,28.417,274.428,520.422,246.033,492.027,738.038
rea,cue,1,130518,rea_cue_run1_130518,D4,e,c,i,l,1,2,yes,switch,red,green,green,incentive,4400,1,757,2,2,289145,293645,294402,126016,12,163.129,167.629,168.386,28.417,274.428,520.422,246.033,492.027,738.038
rea,cue,1,130518,rea_cue_run1_130518,B1,o,c,c,l,2,2,,stay,red,black,black,nonincentive,4400,1,551,2,2,302343,306842,307393,126016,13,176.327,180.826,181.377,28.417,274.428,520.422,246.033,492.027,738.038
rea,cue,1,130518,rea_cue_run1_130518,6I,e,v,c,n,1,1,yes,switch,red,green,green,incentive,3200,1,493,1,1,315541,320040,320533,126016,14,189.525,194.024,194.517,28.417,274.428,520.422,246.033,492.027,738.038
rea,cue,1,130518,rea_cue_run1_130518,A2,e,v,c,n,1,1,,stay,red,black,black,nonincentive,2000,1,644,1,1,327539,332038,332682,126016,15,201.523,206.022,206.666,28.417,274.428,520.422,246.033,492.027,738.038
rea,cue,1,130518,rea_cue_run1_130518,1B,o,c,c,l,2,2,,switch,red,black,black,nonincentive,4400,1,541,2,2,338337,342837,343378,126016,16,212.321,216.821,217.362,28.417,274.428,520.422,246.033,492.027,738.038
rea,cue,1,130518,rea_cue_run1_130518,2A,e,v,c,n,1,1,,switch,red,black,black,nonincentive,2000,1,543,1,1,351535,356035,356578,126016,17,225.519,230.019,230.562,28.417,274.428,520.422,246.033,492.027,738.038
rea,cue,1,130518,rea_cue_run1_130518,B1,o,c,c,n,2,2,,stay,red,black,black,nonincentive,2000,1,622,2,2,362334,366833,367455,126016,18,236.318,240.817,241.439,28.417,274.428,520.422,246.033,492.027,738.038
rea,cue,1,130518,rea_cue_run1_130518,2A,e,v,c,l,1,1,,,red,black,black,nonincentive,3200,1,675,1,1,403144,407643,408318,126016,19,277.128,281.627,282.302,28.417,274.428,520.422,246.033,492.027,738.038
rea,cue,1,130518,rea_cue_run1_130518,6I,e,v,c,n,1,1,,switch,red,black,black,nonincentive,3200,1,708,1,1,415142,419641,420349,126016,20,289.126,293.625,294.333,28.417,274.428,520.422,246.033,492.027,738.038
rea,cue,1,130518,rea_cue_run1_130518,5H,o,c,c,l,2,2,,switch,red,black,black,nonincentive,2000,1,494,2,2,427140,431639,432133,126016,21,301.124,305.623,306.117,28.417,274.428,520.422,246.033,492.027,738.038
rea,cue,1,130518,rea_cue_run1_130518,5H,o,c,c,n,2,2,yes,switch,red,green,green,incentive,4400,1,822,2,2,437938,442437,443259,126016,22,311.922,316.421,317.243,28.417,274.428,520.422,246.033,492.027,738.038
rea,cue,1,130518,rea_cue_run1_130518,1B,o,c,c,n,2,2,,stay,red,black,black,nonincentive,2000,1,765,2,2,451136,455635,456400,126016,23,325.12,329.619,330.384,28.417,274.428,520.422,246.033,492.027,738.038
rea,cue,1,130518,rea_cue_run1_130518,D4,e,c,i,l,1,2,yes,switch,red,green,green,incentive,3200,1,610,2,2,461934,466434,467044,126016,24,335.918,340.418,341.028,28.417,274.428,520.422,246.033,492.027,738.038
rea,cue,1,130518,rea_cue_run1_130518,2A,e,v,c,n,1,1,,switch,red,black,black,nonincentive,4400,1,608,1,1,473932,478432,479040,126016,25,347.916,352.416,353.024,28.417,274.428,520.422,246.033,492.027,738.038
rea,cue,1,130518,rea_cue_run1_130518,I6,e,v,c,l,1,1,,switch,red,black,black,nonincentive,4400,1,632,1,1,487147,491646,492278,126016,26,361.131,365.63,366.262,28.417,274.428,520.422,246.033,492.027,738.038
rea,cue,1,130518,rea_cue_run1_130518,B1,o,c,c,l,2,2,,stay,red,black,black,nonincentive,2000,1,649,2,2,500345,504844,505493,126016,27,374.329,378.828,379.477,28.417,274.428,520.422,246.033,492.027,738.038
rea,cue,1,130518,rea_cue_run1_130518,3E,o,v,i,n,2,1,yes,switch,red,green,green,incentive,3200,1,631,2,2,511143,515642,516273,126016,28,385.127,389.626,390.257,28.417,274.428,520.422,246.033,492.027,738.038
rea,cue,1,130518,rea_cue_run1_130518,3E,o,v,i,l,2,1,error,switch,red,green,green,incentive,2000,0,746,2,1,523141,527641,528387,126016,29,397.125,401.625,402.371,28.417,274.428,520.422,246.033,492.027,738.038
rea,cue,1,130518,rea_cue_run1_130518,A2,e,v,c,n,1,1,,switch,red,black,black,nonincentive,4400,1,656,1,1,533940,538439,539095,126016,30,407.924,412.423,413.079,28.417,274.428,520.422,246.033,492.027,738.038
rea,cue,1,130518,rea_cue_run1_130518,E3,o,v,i,n,2,1,yes,stay,red,green,green,incentive,2000,1,870,2,2,547137,551637,552507,126016,31,421.121,425.621,426.491,28.417,274.428,520.422,246.033,492.027,738.038
rea,cue,1,130518,rea_cue_run1_130518,1B,o,c,c,l,2,2,,switch,red,black,black,nonincentive,4400,1,608,2,2,557936,562435,563043,126016,32,431.92,436.419,437.027,28.417,274.428,520.422,246.033,492.027,738.038
rea,cue,1,130518,rea_cue_run1_130518,2B,e,c,i,l,1,2,,stay,red,black,black,nonincentive,3200,1,679,2,2,571134,575633,576312,126016,33,445.118,449.617,450.296,28.417,274.428,520.422,246.033,492.027,738.038
rea,cue,1,130518,rea_cue_run1_130518,E3,o,v,i,n,2,1,yes,switch,red,green,green,incentive,3200,1,601,2,2,583132,587631,588232,126016,34,457.116,461.615,462.216,28.417,274.428,520.422,246.033,492.027,738.038
rea,cue,1,130518,rea_cue_run1_130518,2A,e,v,c,l,1,1,,switch,red,black,black,nonincentive,2000,1,644,1,1,595146,599646,600290,126016,35,469.13,473.63,474.274,28.417,274.428,520.422,246.033,492.027,738.038
rea,cue,1,130518,rea_cue_run1_130518,A1,o,v,i,n,2,1,,switch,red,black,black,nonincentive,4400,1,612,2,2,605945,610444,611056,126016,36,479.929,484.428,485.04,28.417,274.428,520.422,246.033,492.027,738.038
rea,cue,1,130518,rea_cue_run1_130518,H5,o,c,c,l,2,2,yes,,red,green,green,incentive,3200,1,597,2,2,649138,653637,654234,126016,37,523.122,527.621,528.218,28.417,274.428,520.422,246.033,492.027,738.038
rea,cue,1,130518,rea_cue_run1_130518,A2,e,v,c,n,1,1,,switch,red,black,black,nonincentive,3200,1,571,1,1,661136,665635,666206,126016,38,535.12,539.619,540.19,28.417,274.428,520.422,246.033,492.027,738.038
rea,cue,1,130518,rea_cue_run1_130518,6I,e,v,c,l,1,1,,switch,red,black,black,nonincentive,4400,1,1086,1,1,673134,677633,678719,126016,39,547.118,551.617,552.703,28.417,274.428,520.422,246.033,492.027,738.038
rea,cue,1,130518,rea_cue_run1_130518,A2,e,v,c,l,1,1,,stay,red,black,black,nonincentive,2000,1,534,1,1,686332,690831,691365,126016,40,560.316,564.815,565.349,28.417,274.428,520.422,246.033,492.027,738.038
rea,cue,1,130518,rea_cue_run1_130518,E3,o,v,i,l,2,1,yes,stay,red,green,green,incentive,3200,1,834,1,1,697147,701646,702480,126016,41,571.131,575.63,576.464,28.417,274.428,520.422,246.033,492.027,738.038
rea,cue,1,130518,rea_cue_run1_130518,3E,o,v,i,n,2,1,yes,switch,red,green,green,incentive,4400,1,974,2,2,709145,713644,714618,126016,42,583.129,587.628,588.602,28.417,274.428,520.422,246.033,492.027,738.038
rea,cue,1,130518,rea_cue_run1_130518,1B,o,c,c,l,2,2,,switch,red,black,black,nonincentive,4400,1,704,2,2,722343,726842,727546,126016,43,596.327,600.826,601.53,28.417,274.428,520.422,246.033,492.027,738.038
rea,cue,1,130518,rea_cue_run1_130518,6I,e,v,c,n,1,1,,switch,red,black,black,nonincentive,2000,1,932,1,1,735541,740040,740972,126016,44,609.525,614.024,614.956,28.417,274.428,520.422,246.033,492.027,738.038
rea,cue,1,130518,rea_cue_run1_130518,B1,o,c,c,l,2,2,,switch,red,black,black,nonincentive,2000,1,579,2,2,746339,750838,751417,126016,45,620.323,624.822,625.401,28.417,274.428,520.422,246.033,492.027,738.038
rea,cue,1,130518,rea_cue_run1_130518,2A,e,v,c,l,1,1,,stay,red,black,black,nonincentive,4400,1,590,1,1,757137,761637,762227,126016,46,631.121,635.621,636.211,28.417,274.428,520.422,246.033,492.027,738.038
rea,cue,1,130518,rea_cue_run1_130518,4D,e,c,i,l,1,2,yes,stay,red,green,green,incentive,2000,1,838,2,2,770335,774834,775672,126016,47,644.319,648.818,649.656,28.417,274.428,520.422,246.033,492.027,738.038
rea,cue,1,130518,rea_cue_run1_130518,1B,o,c,c,n,2,2,,switch,red,black,black,nonincentive,2000,1,621,2,2,781133,785633,786254,126016,48,655.117,659.617,660.238,28.417,274.428,520.422,246.033,492.027,738.038
rea,cue,1,130518,rea_cue_run1_130518,B1,o,c,c,n,2,2,,stay,red,black,black,nonincentive,3200,1,531,2,2,791932,796431,796962,126016,49,665.916,670.415,670.946,28.417,274.428,520.422,246.033,492.027,738.038
rea,cue,1,130518,rea_cue_run1_130518,3E,o,v,i,l,2,1,yes,switch,red,green,green,incentive,4400,1,737,1,1,803946,808446,809183,126016,50,677.93,682.43,683.167,28.417,274.428,520.422,246.033,492.027,738.038
rea,cue,1,130518,rea_cue_run1_130518,1A,o,v,i,n,2,1,,switch,red,black,black,nonincentive,2000,1,772,2,2,817144,821644,822416,126016,51,691.128,695.628,696.4,28.417,274.428,520.422,246.033,492.027,738.038
rea,cue,1,130518,rea_cue_run1_130518,4D,e,c,i,n,1,2,yes,stay,red,green,green,incentive,3200,1,575,1,1,827943,832442,833017,126016,52,701.927,706.426,707.001,28.417,274.428,520.422,246.033,492.027,738.038
rea,cue,1,130518,rea_cue_run1_130518,H5,o,c,c,n,2,2,,stay,red,black,black,nonincentive,3200,1,602,2,2,839941,844440,845042,126016,53,713.925,718.424,719.026,28.417,274.428,520.422,246.033,492.027,738.038
rea,cue,1,130518,rea_cue_run1_130518,2A,e,v,c,n,1,1,,stay,red,black,black,nonincentive,4400,1,734,1,1,851939,856438,857172,126016,54,725.923,730.422,731.156,28.417,274.428,520.422,246.033,492.027,738.038
rea,cue,2,130518,rea_cue_run2_130518,1B,o,c,c,l,2,2,,,red,black,black,nonincentive,4400,1,519,2,2,71113,75613,76132,40011,1,31.102,35.602,36.121,28.403,274.414,520.408,246.018,492.012,738.023
rea,cue,2,130518,rea_cue_run2_130518,A2,e,v,c,l,1,1,,stay,red,black,black,nonincentive,3200,1,631,1,1,84328,88827,89458,40011,2,44.317,48.816,49.447,28.403,274.414,520.408,246.018,492.012,738.023
rea,cue,2,130518,rea_cue_run2_130518,B1,o,c,c,l,2,2,,stay,red,black,black,nonincentive,4400,1,618,2,2,96326,100825,101443,40011,3,56.315,60.814,61.432,28.403,274.414,520.408,246.018,492.012,738.023
rea,cue,2,130518,rea_cue_run2_130518,2A,e,v,c,l,1,1,,stay,red,black,black,nonincentive,2000,1,559,1,1,109524,114023,114582,40011,4,69.513,74.012,74.571,28.403,274.414,520.408,246.018,492.012,738.023
rea,cue,2,130518,rea_cue_run2_130518,E3,o,v,i,l,2,1,yes,stay,red,green,green,incentive,2000,1,661,1,1,120322,124822,125483,40011,5,80.311,84.811,85.472,28.403,274.414,520.408,246.018,492.012,738.023
rea,cue,2,130518,rea_cue_run2_130518,3E,o,v,i,n,2,1,yes,switch,red,green,green,incentive,3200,1,808,2,2,131121,135620,136428,40011,6,91.11,95.609,96.417,28.403,274.414,520.408,246.018,492.012,738.023
rea,cue,2,130518,rea_cue_run2_130518,D4,e,c,i,n,1,2,error,stay,red,green,green,incentive,3200,0,1029,2,1,143119,147618,148647,40011,7,103.108,107.607,108.636,28.403,274.414,520.408,246.018,492.012,738.023
rea,cue,2,130518,rea_cue_run2_130518,B1,o,c,c,n,2,2,,stay,red,black,black,nonincentive,2000,1,599,2,2,155117,159616,160215,40011,8,115.106,119.605,120.204,28.403,274.414,520.408,246.018,492.012,738.023
rea,cue,2,130518,rea_cue_run2_130518,6I,e,v,c,l,1,1,yes,switch,red,green,green,incentive,4400,1,889,1,1,165915,170414,171303,40011,9,125.904,130.403,131.292,28.403,274.414,520.408,246.018,492.012,738.023
rea,cue,2,130518,rea_cue_run2_130518,2A,e,v,c,n,1,1,,switch,red,black,black,nonincentive,3200,1,584,1,1,179113,183612,184196,40011,10,139.102,143.601,144.185,28.403,274.414,520.408,246.018,492.012,738.023
rea,cue,2,130518,rea_cue_run2_130518,4D,e,c,i,l,1,2,yes,switch,red,green,green,incentive,3200,1,756,2,2,191128,195627,196383,40011,11,151.117,155.616,156.372,28.403,274.414,520.408,246.018,492.012,738.023
rea,cue,2,130518,rea_cue_run2_130518,A2,e,v,c,n,1,1,,switch,red,black,black,nonincentive,4400,1,626,1,1,203126,207625,208251,40011,12,163.115,167.614,168.24,28.403,274.414,520.408,246.018,492.012,738.023
rea,cue,2,130518,rea_cue_run2_130518,5H,o,c,c,n,2,2,,stay,red,black,black,nonincentive,4400,1,638,2,2,216324,220823,221461,40011,13,176.313,180.812,181.45,28.403,274.414,520.408,246.018,492.012,738.023
rea,cue,2,130518,rea_cue_run2_130518,1B,o,c,c,n,2,2,,stay,red,black,black,nonincentive,3200,1,577,2,2,229521,234021,234598,40011,14,189.51,194.01,194.587,28.403,274.414,520.408,246.018,492.012,738.023
rea,cue,2,130518,rea_cue_run2_130518,B2,e,c,i,l,1,2,,switch,red,black,black,nonincentive,2000,1,555,2,2,241520,246019,246574,40011,15,201.509,206.008,206.563,28.403,274.414,520.408,246.018,492.012,738.023
rea,cue,2,130518,rea_cue_run2_130518,E3,o,v,i,n,2,1,yes,switch,red,green,green,incentive,2000,1,890,2,2,252318,256817,257707,40011,16,212.307,216.806,217.696,28.403,274.414,520.408,246.018,492.012,738.023
rea,cue,2,130518,rea_cue_run2_130518,6I,e,v,c,n,1,1,,stay,red,black,black,nonincentive,4400,1,741,1,1,263116,267615,268356,40011,17,223.105,227.604,228.345,28.403,274.414,520.408,246.018,492.012,738.023
rea,cue,2,130518,rea_cue_run2_130518,H5,o,c,c,l,2,2,,switch,red,black,black,nonincentive,2000,1,944,2,2,276314,280813,281757,40011,18,236.303,240.802,241.746,28.403,274.414,520.408,246.018,492.012,738.023
rea,cue,2,130518,rea_cue_run2_130518,D4,e,c,i,l,1,2,yes,,red,green,green,incentive,2000,1,656,2,2,317124,321623,322279,40011,19,277.113,281.612,282.268,28.403,274.414,520.408,246.018,492.012,738.023
rea,cue,2,130518,rea_cue_run2_130518,I6,e,v,c,n,1,1,,switch,red,black,black,nonincentive,4400,1,612,1,1,327922,332422,333034,40011,20,287.911,292.411,293.023,28.403,274.414,520.408,246.018,492.012,738.023
rea,cue,2,130518,rea_cue_run2_130518,I6,e,v,c,n,1,1,yes,stay,red,green,green,incentive,2000,1,594,1,1,341120,345620,346214,40011,21,301.109,305.609,306.203,28.403,274.414,520.408,246.018,492.012,738.023
rea,cue,2,130518,rea_cue_run2_130518,D4,e,c,i,n,1,2,error,stay,red,green,green,incentive,3200,0,648,2,1,351919,356418,357066,40011,22,311.908,316.407,317.055,28.403,274.414,520.408,246.018,492.012,738.023
rea,cue,2,130518,rea_cue_run2_130518,2A,e,v,c,n,1,1,,stay,red,black,black,nonincentive,3200,1,797,1,1,363917,368416,369213,40011,23,323.906,328.405,329.202,28.403,274.414,520.408,246.018,492.012,738.023
rea,cue,2,130518,rea_cue_run2_130518,H5,o,c,c,l,2,2,,switch,red,black,black,nonincentive,2000,1,592,2,2,375915,380414,381006,40011,24,335.904,340.403,340.995,28.403,274.414,520.408,246.018,492.012,738.023
rea,cue,2,130518,rea_cue_run2_130518,I6,e,v,c,l,1,1,,stay,red,black,black,nonincentive,4400,1,589,1,1,386713,391212,391801,40011,25,346.702,351.201,351.79,28.403,274.414,520.408,246.018,492.012,738.023
rea,cue,2,130518,rea_cue_run2_130518,A2,e,v,c,n,1,1,,switch,red,black,black,nonincentive,4400,1,688,1,1,399928,404427,405115,40011,26,359.917,364.416,365.104,28.403,274.414,520.408,246.018,492.012,738.023
rea,cue,2,130518,rea_cue_run2_130518,2A,e,v,c,l,1,1,,switch,red,black,black,nonincentive,3200,1,843,1,1,413126,417625,418468,40011,27,373.115,377.614,378.457,28.403,274.414,520.408,246.018,492.012,738.023
rea,cue,2,130518,rea_cue_run2_130518,A2,e,v,c,l,1,1,,stay,red,black,black,nonincentive,3200,1,559,1,1,425124,429623,430182,40011,28,385.113,389.612,390.171,28.403,274.414,520.408,246.018,492.012,738.023
rea,cue,2,130518,rea_cue_run2_130518,5H,o,c,c,l,2,2,yes,stay,red,green,green,incentive,4400,1,660,2,2,437122,441621,442281,40011,29,397.111,401.61,402.27,28.403,274.414,520.408,246.018,492.012,738.023
rea,cue,2,130518,rea_cue_run2_130518,B1,o,c,c,n,2,2,,switch,red,black,black,nonincentive,2000,1,696,2,2,450320,454819,455515,40011,30,410.309,414.808,415.504,28.403,274.414,520.408,246.018,492.012,738.023
rea,cue,2,130518,rea_cue_run2_130518,4D,e,c,i,n,1,2,yes,stay,red,green,green,incentive,2000,1,705,1,1,461118,465617,466322,40011,31,421.107,425.606,426.311,28.403,274.414,520.408,246.018,492.012,738.023
rea,cue,2,130518,rea_cue_run2_130518,1A,o,v,i,n,2,1,,stay,red,black,black,nonincentive,3200,1,823,2,2,471916,476415,477238,40011,32,431.905,436.404,437.227,28.403,274.414,520.408,246.018,492.012,738.023
rea,cue,2,130518,rea_cue_run2_130518,B1,o,c,c,l,2,2,,switch,red,black,black,nonincentive,2000,1,616,2,2,483914,488413,489029,40011,33,443.903,448.402,449.018,28.403,274.414,520.408,246.018,492.012,738.023
rea,cue,2,130518,rea_cue_run2_130518,3E,o,v,i,l,2,1,yes,stay,red,green,green,incentive,4400,1,590,1,1,494712,499212,499802,40011,34,454.701,459.201,459.791,28.403,274.414,520.408,246.018,492.012,738.023
rea,cue,2,130518,rea_cue_run2_130518,1B,o,c,c,l,2,2,,stay,red,black,black,nonincentive,4400,1,516,2,2,507927,512426,512942,40011,35,467.916,472.415,472.931,28.403,274.414,520.408,246.018,492.012,738.023
rea,cue,2,130518,rea_cue_run2_130518,2B,e,c,i,n,1,2,,switch,red,black,black,nonincentive,3200,1,610,1,1,521125,525624,526234,40011,36,481.114,485.613,486.223,28.403,274.414,520.408,246.018,492.012,738.023
rea,cue,2,130518,rea_cue_run2_130518,3E,o,v,i,n,2,1,yes,,red,green,green,incentive,2000,1,697,2,2,563118,567618,568315,40011,37,523.107,527.607,528.304,28.403,274.414,520.408,246.018,492.012,738.023
rea,cue,2,130518,rea_cue_run2_130518,A1,o,v,i,l,2,1,,switch,red,black,black,nonincentive,4400,1,633,1,1,573917,578416,579049,40011,38,533.906,538.405,539.038,28.403,274.414,520.408,246.018,492.012,738.023
rea,cue,2,130518,rea_cue_run2_130518,B1,o,c,c,n,2,2,,switch,red,black,black,nonincentive,2000,1,609,2,2,587114,591614,592223,40011,39,547.103,551.603,552.212,28.403,274.414,520.408,246.018,492.012,738.023
rea,cue,2,130518,rea_cue_run2_130518,4D,e,c,i,l,1,2,yes,switch,red,green,green,incentive,3200,1,588,2,2,597913,602412,603000,40011,40,557.902,562.401,562.989,28.403,274.414,520.408,246.018,492.012,738.023
rea,cue,2,130518,rea_cue_run2_130518,B1,o,c,c,l,2,2,,stay,red,black,black,nonincentive,3200,1,641,2,2,609927,614427,615068,40011,41,569.916,574.416,575.057,28.403,274.414,520.408,246.018,492.012,738.023
rea,cue,2,130518,rea_cue_run2_130518,D4,e,c,i,l,1,2,yes,stay,red,green,green,incentive,3200,1,628,2,2,621926,626425,627053,40011,42,581.915,586.414,587.042,28.403,274.414,520.408,246.018,492.012,738.023
rea,cue,2,130518,rea_cue_run2_130518,1B,o,c,c,n,2,2,,switch,red,black,black,nonincentive,4400,1,606,2,2,633924,638423,639029,40011,43,593.913,598.412,599.018,28.403,274.414,520.408,246.018,492.012,738.023
rea,cue,2,130518,rea_cue_run2_130518,4D,e,c,i,n,1,2,yes,stay,red,green,green,incentive,4400,1,825,1,1,647121,651621,652446,40011,44,607.11,611.61,612.435,28.403,274.414,520.408,246.018,492.012,738.023
rea,cue,2,130518,rea_cue_run2_130518,1B,o,c,c,l,2,2,,switch,red,black,black,nonincentive,2000,1,592,2,2,660319,664819,665411,40011,45,620.308,624.808,625.4,28.403,274.414,520.408,246.018,492.012,738.023
rea,cue,2,130518,rea_cue_run2_130518,A2,e,v,c,l,1,1,,stay,red,black,black,nonincentive,4400,1,484,1,1,671118,675617,676101,40011,46,631.107,635.606,636.09,28.403,274.414,520.408,246.018,492.012,738.023
rea,cue,2,130518,rea_cue_run2_130518,2B,e,c,i,l,1,2,,stay,red,black,black,nonincentive,2000,1,761,2,2,684316,688815,689576,40011,47,644.305,648.804,649.565,28.403,274.414,520.408,246.018,492.012,738.023
rea,cue,2,130518,rea_cue_run2_130518,H5,o,c,c,n,2,2,yes,switch,red,green,green,incentive,4400,1,744,2,2,695114,699613,700357,40011,48,655.103,659.602,660.346,28.403,274.414,520.408,246.018,492.012,738.023
rea,cue,2,130518,rea_cue_run2_130518,A2,e,v,c,n,1,1,,stay,red,black,black,nonincentive,2000,1,876,1,1,708312,712828,713704,40011,49,668.301,672.817,673.693,28.403,274.414,520.408,246.018,492.012,738.023
rea,cue,2,130518,rea_cue_run2_130518,5H,o,c,c,n,2,2,,stay,red,black,black,nonincentive,4400,1,689,2,2,719127,723626,724315,40011,50,679.116,683.615,684.304,28.403,274.414,520.408,246.018,492.012,738.023
rea,cue,2,130518,rea_cue_run2_130518,6I,e,v,c,n,1,1,,stay,red,black,black,nonincentive,2000,1,653,1,1,732325,736824,737477,40011,51,692.314,696.813,697.466,28.403,274.414,520.408,246.018,492.012,738.023
rea,cue,2,130518,rea_cue_run2_130518,H5,o,c,c,l,2,2,,switch,red,black,black,nonincentive,3200,1,552,2,2,743123,747622,748174,40011,52,703.112,707.611,708.163,28.403,274.414,520.408,246.018,492.012,738.023
rea,cue,2,130518,rea_cue_run2_130518,E3,o,v,i,l,2,1,yes,stay,red,green,green,incentive,3200,1,658,1,1,755121,759620,760278,40011,53,715.11,719.609,720.267,28.403,274.414,520.408,246.018,492.012,738.023
rea,cue,2,130518,rea_cue_run2_130518,2A,e,v,c,n,1,1,,switch,red,black,black,nonincentive,3200,1,717,1,1,767119,771618,772335,40011,54,727.108,731.607,732.324,28.403,274.414,520.408,246.018,492.012,738.023
bas,cue,1,155938,bas_cue_run1_155938,1B,o,c,c,n,2,2,,,red,black,black,nonincentive,4400,1,1529,2,2,184580,189079,190608,153477,1,31.103,35.602,37.131,28.403,274.415,520.41,246.02,492.015,738.01
bas,cue,1,155938,bas_cue_run1_155938,E3,o,v,i,l,2,1,,switch,red,black,green,nonincentive,3200,1,929,1,1,197778,202277,203206,153477,2,44.301,48.8,49.729,28.403,274.415,520.41,246.02,492.015,738.01
bas,cue,1,155938,bas_cue_run1_155938,B1,o,c,c,l,2,2,,stay,red,black,black,nonincentive,4400,1,712,2,2,209792,214292,215004,153477,3,56.315,60.815,61.527,28.403,274.415,520.41,246.02,492.015,738.01
bas,cue,1,155938,bas_cue_run1_155938,1B,o,c,c,l,2,2,,stay,red,black,black,nonincentive,3200,1,951,2,2,222990,227490,228441,153477,4,69.513,74.013,74.964,28.403,274.415,520.41,246.02,492.015,738.01
bas,cue,1,155938,bas_cue_run1_155938,D4,e,c,i,l,1,2,,stay,red,black,green,nonincentive,2000,1,547,2,2,234989,239488,240035,153477,5,81.512,86.011,86.558,28.403,274.415,520.41,246.02,492.015,738.01
bas,cue,1,155938,bas_cue_run1_155938,I6,e,v,c,n,1,1,,switch,red,black,black,nonincentive,4400,1,1027,1,1,245787,250286,251313,153477,6,92.31,96.809,97.836,28.403,274.415,520.41,246.02,492.015,738.01
bas,cue,1,155938,bas_cue_run1_155938,4D,e,c,i,n,1,2,,stay,red,black,green,nonincentive,2000,1,1306,1,1,258985,263484,264790,153477,7,105.508,110.007,111.313,28.403,274.415,520.41,246.02,492.015,738.01
bas,cue,1,155938,bas_cue_run1_155938,5H,o,c,c,l,2,2,,switch,red,black,black,nonincentive,2000,1,869,2,2,269783,274282,275151,153477,8,116.306,120.805,121.674,28.403,274.415,520.41,246.02,492.015,738.01
bas,cue,1,155938,bas_cue_run1_155938,6I,e,v,c,n,1,1,,switch,red,black,green,nonincentive,3200,1,684,1,1,280582,285081,285765,153477,9,127.105,131.604,132.288,28.403,274.415,520.41,246.02,492.015,738.01
bas,cue,1,155938,bas_cue_run1_155938,B2,e,c,i,n,1,2,,stay,red,black,black,nonincentive,2000,1,1134,1,1,292580,297079,298213,153477,10,139.103,143.602,144.736,28.403,274.415,520.41,246.02,492.015,738.01
bas,cue,1,155938,bas_cue_run1_155938,2A,e,v,c,n,1,1,,stay,red,black,black,nonincentive,2000,1,957,1,1,303378,307877,308834,153477,11,149.901,154.4,155.357,28.403,274.415,520.41,246.02,492.015,738.01
bas,cue,1,155938,bas_cue_run1_155938,1A,o,v,i,l,2,1,,switch,red,black,black,nonincentive,4400,1,1111,1,1,314193,318692,319803,153477,12,160.716,165.215,166.326,28.403,274.415,520.41,246.02,492.015,738.01
bas,cue,1,155938,bas_cue_run1_155938,A2,e,v,c,l,1,1,,stay,red,black,black,nonincentive,3200,1,1361,1,1,327391,331890,333251,153477,13,173.914,178.413,179.774,28.403,274.415,520.41,246.02,492.015,738.01
bas,cue,1,155938,bas_cue_run1_155938,D4,e,c,i,n,1,2,,switch,red,black,green,nonincentive,4400,0,1512,2,1,339389,343888,345400,153477,14,185.912,190.411,191.923,28.403,274.415,520.41,246.02,492.015,738.01
bas,cue,1,155938,bas_cue_run1_155938,I6,e,v,c,l,1,1,,switch,red,black,green,nonincentive,2000,1,1210,1,1,352587,357086,358296,153477,15,199.11,203.609,204.819,28.403,274.415,520.41,246.02,492.015,738.01
bas,cue,1,155938,bas_cue_run1_155938,B1,o,c,c,n,2,2,,switch,red,black,black,nonincentive,3200,1,1262,2,2,363385,367885,369147,153477,16,209.908,214.408,215.67,28.403,274.415,520.41,246.02,492.015,738.01
bas,cue,1,155938,bas_cue_run1_155938,H5,o,c,c,l,2,2,,switch,red,black,black,nonincentive,3200,1,1151,2,2,375384,379883,381034,153477,17,221.907,226.406,227.557,28.403,274.415,520.41,246.02,492.015,738.01
bas,cue,1,155938,bas_cue_run1_155938,A2,e,v,c,n,1,1,,switch,red,black,black,nonincentive,4400,1,1293,1,1,387382,391881,393174,153477,18,233.905,238.404,239.697,28.403,274.415,520.41,246.02,492.015,738.01
bas,cue,1,155938,bas_cue_run1_155938,I6,e,v,c,l,1,1,,,red,black,black,nonincentive,4400,1,989,1,1,430592,435091,436080,153477,19,277.115,281.614,282.603,28.403,274.415,520.41,246.02,492.015,738.01
bas,cue,1,155938,bas_cue_run1_155938,2A,e,v,c,l,1,1,,stay,red,black,black,nonincentive,4400,1,891,1,1,443790,448289,449180,153477,20,290.313,294.812,295.703,28.403,274.415,520.41,246.02,492.015,738.01
bas,cue,1,155938,bas_cue_run1_155938,E3,o,v,i,n,2,1,,switch,red,black,green,nonincentive,3200,1,1369,2,2,456988,461487,462856,153477,21,303.511,308.01,309.379,28.403,274.415,520.41,246.02,492.015,738.01
bas,cue,1,155938,bas_cue_run1_155938,3E,o,v,i,n,2,1,,stay,red,black,green,nonincentive,3200,1,2305,2,2,468986,473485,475790,153477,22,315.509,320.008,322.313,28.403,274.415,520.41,246.02,492.015,738.01
bas,cue,1,155938,bas_cue_run1_155938,2A,e,v,c,n,1,1,,stay,red,black,black,nonincentive,2000,1,1065,1,1,480984,485483,486548,153477,23,327.507,332.006,333.071,28.403,274.415,520.41,246.02,492.015,738.01
bas,cue,1,155938,bas_cue_run1_155938,2B,e,c,i,l,1,2,,switch,red,black,black,nonincentive,4400,1,749,2,2,491782,496281,497030,153477,24,338.305,342.804,343.553,28.403,274.415,520.41,246.02,492.015,738.01
bas,cue,1,155938,bas_cue_run1_155938,A2,e,v,c,n,1,1,,switch,red,black,black,nonincentive,2000,1,1746,1,1,504980,509479,511225,153477,25,351.503,356.002,357.748,28.403,274.415,520.41,246.02,492.015,738.01
bas,cue,1,155938,bas_cue_run1_155938,3E,o,v,i,l,2,1,,switch,red,black,green,nonincentive,2000,1,2970,1,1,515778,520278,523248,153477,26,362.301,366.801,369.771,28.403,274.415,520.41,246.02,492.015,738.01
bas,cue,1,155938,bas_cue_run1_155938,5H,o,c,c,n,2,2,,switch,red,black,green,nonincentive,3200,1,2149,2,2,526577,531093,533242,153477,27,373.1,377.616,379.765,28.403,274.415,520.41,246.02,492.015,738.01
bas,cue,1,155938,bas_cue_run1_155938,A1,o,v,i,n,2,1,,stay,red,black,black,nonincentive,2000,1,1022,2,2,538592,543091,544113,153477,28,385.115,389.614,390.636,28.403,274.415,520.41,246.02,492.015,738.01
bas,cue,1,155938,bas_cue_run1_155938,D4,e,c,i,l,1,2,,switch,red,black,green,nonincentive,4400,1,753,2,2,549390,553889,554642,153477,29,395.913,400.412,401.165,28.403,274.415,520.41,246.02,492.015,738.01
bas,cue,1,155938,bas_cue_run1_155938,6I,e,v,c,n,1,1,,switch,red,black,black,nonincentive,4400,1,1583,1,1,562588,567087,568670,153477,30,409.111,413.61,415.193,28.403,274.415,520.41,246.02,492.015,738.01
bas,cue,1,155938,bas_cue_run1_155938,B1,o,c,c,l,2,2,,switch,red,black,black,nonincentive,4400,1,1043,2,2,575786,580285,581328,153477,31,422.309,426.808,427.851,28.403,274.415,520.41,246.02,492.015,738.01
bas,cue,1,155938,bas_cue_run1_155938,1B,o,c,c,n,2,2,,switch,red,black,black,nonincentive,3200,1,1469,2,2,588984,593483,594952,153477,32,435.507,440.006,441.475,28.403,274.415,520.41,246.02,492.015,738.01
bas,cue,1,155938,bas_cue_run1_155938,2A,e,v,c,l,1,1,,switch,red,black,black,nonincentive,3200,1,1180,1,1,600982,605481,606661,153477,33,447.505,452.004,453.184,28.403,274.415,520.41,246.02,492.015,738.01
bas,cue,1,155938,bas_cue_run1_155938,1B,o,c,c,l,2,2,,stay,red,black,black,nonincentive,2000,1,1045,2,2,612980,617479,618524,153477,34,459.503,464.002,465.047,28.403,274.415,520.41,246.02,492.015,738.01
bas,cue,1,155938,bas_cue_run1_155938,E3,o,v,i,n,2,1,,switch,red,black,green,nonincentive,2000,1,2643,2,2,623778,628278,630921,153477,35,470.301,474.801,477.444,28.403,274.415,520.41,246.02,492.015,738.01
bas,cue,1,155938,bas_cue_run1_155938,5H,o,c,c,l,2,2,,switch,red,black,black,nonincentive,3200,1,828,2,2,634577,639093,639921,153477,36,481.1,485.616,486.444,28.403,274.415,520.41,246.02,492.015,738.01
bas,cue,1,155938,bas_cue_run1_155938,2A,e,v,c,n,1,1,,,red,black,black,nonincentive,2000,1,1214,1,1,676587,681086,682300,153477,37,523.11,527.609,528.823,28.403,274.415,520.41,246.02,492.015,738.01
bas,cue,1,155938,bas_cue_run1_155938,E3,o,v,i,l,2,1,,switch,red,black,green,nonincentive,4400,1,1480,1,1,687385,691884,693364,153477,38,533.908,538.407,539.887,28.403,274.415,520.41,246.02,492.015,738.01
bas,cue,1,155938,bas_cue_run1_155938,H5,o,c,c,n,2,2,,switch,red,black,black,nonincentive,3200,1,1414,2,2,700583,705082,706496,153477,39,547.106,551.605,553.019,28.403,274.415,520.41,246.02,492.015,738.01
bas,cue,1,155938,bas_cue_run1_155938,B1,o,c,c,l,2,2,,switch,red,black,black,nonincentive,3200,1,881,2,2,712581,717081,717962,153477,40,559.104,563.604,564.485,28.403,274.415,520.41,246.02,492.015,738.01
bas,cue,1,155938,bas_cue_run1_155938,2A,e,v,c,l,1,1,,stay,red,black,black,nonincentive,2000,1,962,1,1,724579,729079,730041,153477,41,571.102,575.602,576.564,28.403,274.415,520.41,246.02,492.015,738.01
bas,cue,1,155938,bas_cue_run1_155938,3E,o,v,i,l,2,1,,stay,red,black,green,nonincentive,2000,1,948,1,1,735378,739877,740825,153477,42,581.901,586.4,587.348,28.403,274.415,520.41,246.02,492.015,738.01
bas,cue,1,155938,bas_cue_run1_155938,4D,e,c,i,l,1,2,,stay,red,black,green,nonincentive,4400,1,998,2,2,746193,750692,751690,153477,43,592.716,597.215,598.213,28.403,274.415,520.41,246.02,492.015,738.01
bas,cue,1,155938,bas_cue_run1_155938,A2,e,v,c,l,1,1,,stay,red,black,black,nonincentive,3200,1,1146,1,1,759391,763890,765036,153477,44,605.914,610.413,611.559,28.403,274.415,520.41,246.02,492.015,738.01
bas,cue,1,155938,bas_cue_run1_155938,6I,e,v,c,l,1,1,,stay,red,black,black,nonincentive,4400,1,901,1,1,771389,775888,776789,153477,45,617.912,622.411,623.312,28.403,274.415,520.41,246.02,492.015,738.01
bas,cue,1,155938,bas_cue_run1_155938,6I,e,v,c,n,1,1,,switch,red,black,black,nonincentive,4400,1,1997,1,1,784587,789086,791083,153477,46,631.11,635.609,637.606,28.403,274.415,520.41,246.02,492.015,738.01
bas,cue,1,155938,bas_cue_run1_155938,A2,e,v,c,n,1,1,,stay,red,black,black,nonincentive,2000,1,2034,1,1,797785,802284,804318,153477,47,644.308,648.807,650.841,28.403,274.415,520.41,246.02,492.015,738.01
bas,cue,1,155938,bas_cue_run1_155938,1B,o,c,c,l,2,2,,switch,red,black,black,nonincentive,3200,1,706,2,2,808583,813082,813788,153477,48,655.106,659.605,660.311,28.403,274.415,520.41,246.02,492.015,738.01
bas,cue,1,155938,bas_cue_run1_155938,H5,o,c,c,l,2,2,,stay,red,black,green,nonincentive,4400,1,1114,2,2,820581,825081,826195,153477,49,667.104,671.604,672.718,28.403,274.415,520.41,246.02,492.015,738.01
bas,cue,1,155938,bas_cue_run1_155938,3E,o,v,i,n,2,1,,switch,red,black,green,nonincentive,2000,1,2734,2,2,833779,838278,841012,153477,50,680.302,684.801,687.535,28.403,274.415,520.41,246.02,492.015,738.01
bas,cue,1,155938,bas_cue_run1_155938,1A,o,v,i,n,2,1,,stay,red,black,black,nonincentive,2000,1,1226,2,2,844578,849077,850303,153477,51,691.101,695.6,696.826,28.403,274.415,520.41,246.02,492.015,738.01
bas,cue,1,155938,bas_cue_run1_155938,1B,o,c,c,n,2,2,,stay,red,black,black,nonincentive,4400,1,1125,2,2,855393,859892,861017,153477,52,701.916,706.415,707.54,28.403,274.415,520.41,246.02,492.015,738.01
bas,cue,1,155938,bas_cue_run1_155938,B1,o,c,c,n,2,2,,stay,red,black,black,nonincentive,3200,1,975,2,2,868590,873090,874065,153477,53,715.113,719.613,720.588,28.403,274.415,520.41,246.02,492.015,738.01
bas,cue,1,155938,bas_cue_run1_155938,4D,e,c,i,n,1,2,,stay,red,black,green,nonincentive,3200,1,1260,1,1,880589,885088,886348,153477,54,727.112,731.611,732.871,28.403,274.415,520.41,246.02,492.015,738.01
bas,cue,2,155938,bas_cue_run2_155938,A2,e,v,c,n,1,1,,,red,black,black,nonincentive,3200,1,1429,1,1,91861,96360,97789,60746,1,31.115,35.614,37.043,28.415,274.411,520.406,246.015,492.027,738.022
bas,cue,2,155938,bas_cue_run2_155938,4D,e,c,i,l,1,2,,switch,red,black,green,nonincentive,4400,1,1127,2,2,103859,108359,109486,60746,2,43.113,47.613,48.74,28.415,274.411,520.406,246.015,492.027,738.022
bas,cue,2,155938,bas_cue_run2_155938,H5,o,c,c,l,2,2,,stay,red,black,black,nonincentive,2000,1,2074,2,2,117057,121556,123630,60746,3,56.311,60.81,62.884,28.415,274.411,520.406,246.015,492.027,738.022
bas,cue,2,155938,bas_cue_run2_155938,6I,e,v,c,l,1,1,,stay,red,black,green,nonincentive,2000,1,1479,1,1,127855,132355,133834,60746,4,67.109,71.609,73.088,28.415,274.411,520.406,246.015,492.027,738.022
bas,cue,2,155938,bas_cue_run2_155938,3E,o,v,i,n,2,1,,switch,red,black,green,nonincentive,2000,1,1178,2,2,138654,143153,144331,60746,5,77.908,82.407,83.585,28.415,274.411,520.406,246.015,492.027,738.022
bas,cue,2,155938,bas_cue_run2_155938,B1,o,c,c,l,2,2,,switch,red,black,black,nonincentive,3200,1,827,2,2,149452,153951,154778,60746,6,88.706,93.205,94.032,28.415,274.411,520.406,246.015,492.027,738.022
bas,cue,2,155938,bas_cue_run2_155938,1B,o,c,c,l,2,2,,stay,red,black,black,nonincentive,4400,1,676,2,2,161450,165950,166626,60746,7,100.704,105.204,105.88,28.415,274.411,520.406,246.015,492.027,738.022
bas,cue,2,155938,bas_cue_run2_155938,A2,e,v,c,l,1,1,,stay,red,black,black,nonincentive,3200,1,911,1,1,174665,179164,180075,60746,8,113.919,118.418,119.329,28.415,274.411,520.406,246.015,492.027,738.022
bas,cue,2,155938,bas_cue_run2_155938,5H,o,c,c,n,2,2,,switch,red,black,black,nonincentive,4400,1,1536,2,2,186663,191162,192698,60746,9,125.917,130.416,131.952,28.415,274.411,520.406,246.015,492.027,738.022
bas,cue,2,155938,bas_cue_run2_155938,B1,o,c,c,n,2,2,,stay,red,black,black,nonincentive,4400,1,1022,2,2,199861,204360,205382,60746,10,139.115,143.614,144.636,28.415,274.411,520.406,246.015,492.027,738.022
bas,cue,2,155938,bas_cue_run2_155938,2A,e,v,c,l,1,1,,switch,red,black,black,nonincentive,2000,1,1380,1,1,213059,217558,218938,60746,11,152.313,156.812,158.192,28.415,274.411,520.406,246.015,492.027,738.022
bas,cue,2,155938,bas_cue_run2_155938,B2,e,c,i,l,1,2,,stay,red,black,black,nonincentive,3200,1,883,2,2,223857,228357,229240,60746,12,163.111,167.611,168.494,28.415,274.411,520.406,246.015,492.027,738.022
bas,cue,2,155938,bas_cue_run2_155938,E3,o,v,i,l,2,1,,stay,red,black,green,nonincentive,3200,1,1299,1,1,235855,240355,241654,60746,13,175.109,179.609,180.908,28.415,274.411,520.406,246.015,492.027,738.022
bas,cue,2,155938,bas_cue_run2_155938,2A,e,v,c,n,1,1,,switch,red,black,black,nonincentive,4400,1,3186,1,1,247854,252353,255539,60746,14,187.108,191.607,194.793,28.415,274.411,520.406,246.015,492.027,738.022
bas,cue,2,155938,bas_cue_run2_155938,D4,e,c,i,n,1,2,,stay,red,black,green,nonincentive,2000,1,1188,1,1,261052,265551,266739,60746,15,200.306,204.805,205.993,28.415,274.411,520.406,246.015,492.027,738.022
bas,cue,2,155938,bas_cue_run2_155938,1B,o,c,c,n,2,2,,stay,red,black,black,nonincentive,3200,1,897,2,2,271850,276366,277263,60746,16,211.104,215.62,216.517,28.415,274.411,520.406,246.015,492.027,738.022
bas,cue,2,155938,bas_cue_run2_155938,6I,e,v,c,n,1,1,,stay,red,black,black,nonincentive,2000,1,1425,1,1,283865,288364,289789,60746,17,223.119,227.618,229.043,28.415,274.411,520.406,246.015,492.027,738.022
bas,cue,2,155938,bas_cue_run2_155938,E3,o,v,i,n,2,1,,stay,red,black,green,nonincentive,4400,1,1162,2,2,294663,299162,300324,60746,18,233.917,238.416,239.578,28.415,274.411,520.406,246.015,492.027,738.022
bas,cue,2,155938,bas_cue_run2_155938,I6,e,v,c,n,1,1,,,red,black,green,nonincentive,4400,1,1095,1,1,337856,342356,343451,60746,19,277.11,281.61,282.705,28.415,274.411,520.406,246.015,492.027,738.022
bas,cue,2,155938,bas_cue_run2_155938,I6,e,v,c,n,1,1,,stay,red,black,black,nonincentive,4400,1,1454,1,1,351054,355554,357008,60746,20,290.308,294.808,296.262,28.415,274.411,520.406,246.015,492.027,738.022
bas,cue,2,155938,bas_cue_run2_155938,A2,e,v,c,n,1,1,,stay,red,black,black,nonincentive,3200,1,1487,1,1,364252,368752,370239,60746,21,303.506,308.006,309.493,28.415,274.411,520.406,246.015,492.027,738.022
bas,cue,2,155938,bas_cue_run2_155938,4D,e,c,i,n,1,2,,stay,red,black,green,nonincentive,3200,1,902,1,1,376250,380750,381652,60746,22,315.504,320.004,320.906,28.415,274.411,520.406,246.015,492.027,738.022
bas,cue,2,155938,bas_cue_run2_155938,2A,e,v,c,l,1,1,,switch,red,black,black,nonincentive,2000,0,937,2,1,388265,392764,393701,60746,23,327.519,332.018,332.955,28.415,274.411,520.406,246.015,492.027,738.022
bas,cue,2,155938,bas_cue_run2_155938,2B,e,c,i,n,1,2,,switch,red,black,black,nonincentive,2000,1,924,1,1,399063,403563,404487,60746,24,338.317,342.817,343.741,28.415,274.411,520.406,246.015,492.027,738.022
bas,cue,2,155938,bas_cue_run2_155938,A2,e,v,c,l,1,1,,switch,red,black,black,nonincentive,4400,1,736,1,1,409862,414361,415097,60746,25,349.116,353.615,354.351,28.415,274.411,520.406,246.015,492.027,738.022
bas,cue,2,155938,bas_cue_run2_155938,B1,o,c,c,l,2,2,,stay,red,black,black,nonincentive,2000,1,932,2,2,423060,427559,428491,60746,26,362.314,366.813,367.745,28.415,274.411,520.406,246.015,492.027,738.022
bas,cue,2,155938,bas_cue_run2_155938,3E,o,v,i,l,2,1,,stay,red,black,green,nonincentive,3200,1,1346,1,1,433858,438357,439703,60746,27,373.112,377.611,378.957,28.415,274.411,520.406,246.015,492.027,738.022
bas,cue,2,155938,bas_cue_run2_155938,1B,o,c,c,l,2,2,,stay,red,black,black,nonincentive,2000,1,718,2,2,445856,450356,451074,60746,28,385.11,389.61,390.328,28.415,274.411,520.406,246.015,492.027,738.022
bas,cue,2,155938,bas_cue_run2_155938,I6,e,v,c,l,1,1,,stay,red,black,black,nonincentive,2000,1,2134,1,1,456655,461154,463288,60746,29,395.909,400.408,402.542,28.415,274.411,520.406,246.015,492.027,738.022
bas,cue,2,155938,bas_cue_run2_155938,D4,e,c,i,l,1,2,,stay,red,black,green,nonincentive,2000,1,830,2,2,467453,471952,472782,60746,30,406.707,411.206,412.036,28.415,274.411,520.406,246.015,492.027,738.022
bas,cue,2,155938,bas_cue_run2_155938,B1,o,c,c,n,2,2,,switch,red,black,black,nonincentive,3200,1,949,2,2,478251,482751,483700,60746,31,417.505,422.005,422.954,28.415,274.411,520.406,246.015,492.027,738.022
bas,cue,2,155938,bas_cue_run2_155938,5H,o,c,c,l,2,2,,switch,red,black,green,nonincentive,3200,1,1118,2,2,490266,494765,495883,60746,32,429.52,434.019,435.137,28.415,274.411,520.406,246.015,492.027,738.022
bas,cue,2,155938,bas_cue_run2_155938,1A,o,v,i,n,2,1,,switch,red,black,black,nonincentive,3200,1,1291,2,2,502264,506763,508054,60746,33,441.518,446.017,447.308,28.415,274.411,520.406,246.015,492.027,738.022
bas,cue,2,155938,bas_cue_run2_155938,2A,e,v,c,n,1,1,,stay,red,black,black,nonincentive,4400,1,1654,1,1,514262,518762,520416,60746,34,453.516,458.016,459.67,28.415,274.411,520.406,246.015,492.027,738.022
bas,cue,2,155938,bas_cue_run2_155938,H5,o,c,c,l,2,2,,switch,red,black,black,nonincentive,4400,1,894,2,2,527460,531960,532854,60746,35,466.714,471.214,472.108,28.415,274.411,520.406,246.015,492.027,738.022
bas,cue,2,155938,bas_cue_run2_155938,D4,e,c,i,n,1,2,,switch,red,black,green,nonincentive,4400,1,1353,1,1,540658,545158,546511,60746,36,479.912,484.412,485.765,28.415,274.411,520.406,246.015,492.027,738.022
bas,cue,2,155938,bas_cue_run2_155938,2A,e,v,c,n,1,1,,,red,black,black,nonincentive,2000,1,1014,1,1,583852,588351,589365,60746,37,523.106,527.605,528.619,28.415,274.411,520.406,246.015,492.027,738.022
bas,cue,2,155938,bas_cue_run2_155938,2B,e,c,i,l,1,2,,switch,red,black,black,nonincentive,3200,1,819,2,2,594650,599166,599985,60746,38,533.904,538.42,539.239,28.415,274.411,520.406,246.015,492.027,738.022
bas,cue,2,155938,bas_cue_run2_155938,4D,e,c,i,l,1,2,,stay,red,black,green,nonincentive,2000,1,638,2,2,606665,611164,611802,60746,39,545.919,550.418,551.056,28.415,274.411,520.406,246.015,492.027,738.022
bas,cue,2,155938,bas_cue_run2_155938,5H,o,c,c,n,2,2,,switch,red,black,black,nonincentive,4400,1,1351,2,2,617463,621962,623313,60746,40,556.717,561.216,562.567,28.415,274.411,520.406,246.015,492.027,738.022
bas,cue,2,155938,bas_cue_run2_155938,D4,e,c,i,l,1,2,,switch,red,black,green,nonincentive,3200,1,765,2,2,630661,635160,635925,60746,41,569.915,574.414,575.179,28.415,274.411,520.406,246.015,492.027,738.022
bas,cue,2,155938,bas_cue_run2_155938,6I,e,v,c,n,1,1,,switch,red,black,black,nonincentive,3200,1,1677,1,1,642659,647158,648835,60746,42,581.913,586.412,588.089,28.415,274.411,520.406,246.015,492.027,738.022
bas,cue,2,155938,bas_cue_run2_155938,H5,o,c,c,l,2,2,,switch,red,black,black,nonincentive,4400,1,925,2,2,654657,659157,660082,60746,43,593.911,598.411,599.336,28.415,274.411,520.406,246.015,492.027,738.022
bas,cue,2,155938,bas_cue_run2_155938,4D,e,c,i,n,1,2,,switch,red,black,green,nonincentive,2000,1,1738,1,1,667855,672355,674093,60746,44,607.109,611.609,613.347,28.415,274.411,520.406,246.015,492.027,738.022
bas,cue,2,155938,bas_cue_run2_155938,A2,e,v,c,l,1,1,,switch,red,black,black,nonincentive,4400,1,1516,1,1,678654,683153,684669,60746,45,617.908,622.407,623.923,28.415,274.411,520.406,246.015,492.027,738.022
bas,cue,2,155938,bas_cue_run2_155938,1B,o,c,c,n,2,2,,switch,red,black,black,nonincentive,3200,1,1124,2,2,691851,696351,697475,60746,46,631.105,635.605,636.729,28.415,274.411,520.406,246.015,492.027,738.022
bas,cue,2,155938,bas_cue_run2_155938,A1,o,v,i,l,2,1,,switch,red,black,black,nonincentive,2000,1,1101,1,1,703850,708366,709467,60746,47,643.104,647.62,648.721,28.415,274.411,520.406,246.015,492.027,738.022
bas,cue,2,155938,bas_cue_run2_155938,E3,o,v,i,l,2,1,,stay,red,black,green,nonincentive,4400,1,1152,1,1,714665,719164,720316,60746,48,653.919,658.418,659.57,28.415,274.411,520.406,246.015,492.027,738.022
bas,cue,2,155938,bas_cue_run2_155938,B1,o,c,c,l,2,2,,stay,red,black,black,nonincentive,2000,1,1043,2,2,727863,732362,733405,60746,49,667.117,671.616,672.659,28.415,274.411,520.406,246.015,492.027,738.022
bas,cue,2,155938,bas_cue_run2_155938,1B,o,c,c,l,2,2,,stay,red,black,black,nonincentive,3200,1,775,2,2,738661,743160,743935,60746,50,677.915,682.414,683.189,28.415,274.411,520.406,246.015,492.027,738.022
bas,cue,2,155938,bas_cue_run2_155938,3E,o,v,i,n,2,1,,switch,red,black,green,nonincentive,4400,0,1023,1,2,750659,755158,756181,60746,51,689.913,694.412,695.435,28.415,274.411,520.406,246.015,492.027,738.022
bas,cue,2,155938,bas_cue_run2_155938,B1,o,c,c,n,2,2,,stay,red,black,black,nonincentive,3200,1,1702,2,2,763857,768356,770058,60746,52,703.111,707.61,709.312,28.415,274.411,520.406,246.015,492.027,738.022
bas,cue,2,155938,bas_cue_run2_155938,A2,e,v,c,n,1,1,,stay,red,black,black,nonincentive,4400,1,895,1,1,775855,780354,781249,60746,53,715.109,719.608,720.503,28.415,274.411,520.406,246.015,492.027,738.022
bas,cue,2,155938,bas_cue_run2_155938,H5,o,c,c,n,2,2,,stay,red,black,green,nonincentive,2000,1,1338,2,2,789053,793552,794890,60746,54,728.307,732.806,734.144,28.415,274.411,520.406,246.015,492.027,738.022
pro,cue,1,155938,pro_cue_run1_155938,2A,e,v,c,n,1,1,,,red,black,black,nonincentive,4400,1,818,1,1,167193,171692,172510,136072,1,31.121,35.62,36.438,28.421,274.416,520.41,246.02,492.014,738.025
pro,cue,1,155938,pro_cue_run1_155938,1B,o,c,c,l,2,2,,switch,red,black,black,nonincentive,3200,1,961,2,2,180391,184890,185851,136072,2,44.319,48.818,49.779,28.421,274.416,520.41,246.02,492.014,738.025
pro,cue,1,155938,pro_cue_run1_155938,E3,o,v,i,l,2,1,yes,stay,green,black,green,incentive,4400,1,860,1,1,192389,196888,197748,136072,3,56.317,60.816,61.676,28.421,274.416,520.41,246.02,492.014,738.025
pro,cue,1,155938,pro_cue_run1_155938,H5,o,c,c,l,2,2,,stay,red,black,black,nonincentive,3200,1,886,2,2,205587,210086,210972,136072,4,69.515,74.014,74.9,28.421,274.416,520.41,246.02,492.014,738.025
pro,cue,1,155938,pro_cue_run1_155938,D4,e,c,i,n,1,2,yes,switch,green,black,green,incentive,3200,1,1118,1,1,217585,222084,223202,136072,5,81.513,86.012,87.13,28.421,274.416,520.41,246.02,492.014,738.025
pro,cue,1,155938,pro_cue_run1_155938,5H,o,c,c,l,2,2,,switch,red,black,black,nonincentive,4400,1,710,2,2,229583,234082,234792,136072,6,93.511,98.01,98.72,28.421,274.416,520.41,246.02,492.014,738.025
pro,cue,1,155938,pro_cue_run1_155938,A2,e,v,c,l,1,1,,stay,red,black,black,nonincentive,2000,1,1609,1,1,242781,247280,248889,136072,7,106.709,111.208,112.817,28.421,274.416,520.41,246.02,492.014,738.025
pro,cue,1,155938,pro_cue_run1_155938,4D,e,c,i,n,1,2,yes,switch,green,black,green,incentive,2000,1,706,1,1,253579,258078,258784,136072,8,117.507,122.006,122.712,28.421,274.416,520.41,246.02,492.014,738.025
pro,cue,1,155938,pro_cue_run1_155938,B1,o,c,c,n,2,2,,stay,red,black,black,nonincentive,2000,1,1074,2,2,264377,268893,269967,136072,9,128.305,132.821,133.895,28.421,274.416,520.41,246.02,492.014,738.025
pro,cue,1,155938,pro_cue_run1_155938,D4,e,c,i,l,1,2,yes,switch,green,black,green,incentive,2000,1,911,2,2,275192,279692,280603,136072,10,139.12,143.62,144.531,28.421,274.416,520.41,246.02,492.014,738.025
pro,cue,1,155938,pro_cue_run1_155938,A2,e,v,c,n,1,1,,switch,red,black,black,nonincentive,4400,1,1003,1,1,285991,290490,291493,136072,11,149.919,154.418,155.421,28.421,274.416,520.41,246.02,492.014,738.025
pro,cue,1,155938,pro_cue_run1_155938,1A,o,v,i,l,2,1,,switch,red,black,black,nonincentive,3200,1,734,1,1,299189,303688,304422,136072,12,163.117,167.616,168.35,28.421,274.416,520.41,246.02,492.014,738.025
pro,cue,1,155938,pro_cue_run1_155938,6I,e,v,c,n,1,1,too.slow,switch,green,black,green,incentive,2000,1,1350,1,1,311187,315686,317036,136072,13,175.115,179.614,180.964,28.421,274.416,520.41,246.02,492.014,738.025
pro,cue,1,155938,pro_cue_run1_155938,1B,o,c,c,n,2,2,,stay,red,black,black,nonincentive,4400,1,721,2,2,321985,326484,327205,136072,14,185.913,190.412,191.133,28.421,274.416,520.41,246.02,492.014,738.025
pro,cue,1,155938,pro_cue_run1_155938,B1,o,c,c,l,2,2,,switch,red,black,black,nonincentive,3200,1,729,2,2,335183,339682,340411,136072,15,199.111,203.61,204.339,28.421,274.416,520.41,246.02,492.014,738.025
pro,cue,1,155938,pro_cue_run1_155938,I6,e,v,c,n,1,1,,switch,red,black,black,nonincentive,4400,1,912,1,1,347181,351680,352592,136072,16,211.109,215.608,216.52,28.421,274.416,520.41,246.02,492.014,738.025
pro,cue,1,155938,pro_cue_run1_155938,I6,e,v,c,l,1,1,yes,switch,green,black,green,incentive,3200,1,881,1,1,360379,364878,365759,136072,17,224.307,228.806,229.687,28.421,274.416,520.41,246.02,492.014,738.025
pro,cue,1,155938,pro_cue_run1_155938,B2,e,c,i,n,1,2,,switch,red,black,black,nonincentive,2000,1,1010,1,1,372377,376893,377903,136072,18,236.305,240.821,241.831,28.421,274.416,520.41,246.02,492.014,738.025
pro,cue,1,155938,pro_cue_run1_155938,E3,o,v,i,n,2,1,yes,,green,black,green,incentive,2000,1,710,2,2,413187,417686,418396,136072,19,277.115,281.614,282.324,28.421,274.416,520.41,246.02,492.014,738.025
pro,cue,1,155938,pro_cue_run1_155938,A2,e,v,c,n,1,1,,stay,red,black,black,nonincentive,2000,1,614,1,1,423985,428485,429099,136072,20,287.913,292.413,293.027,28.421,274.416,520.41,246.02,492.014,738.025
pro,cue,1,155938,pro_cue_run1_155938,5H,o,c,c,l,2,2,,switch,red,black,black,nonincentive,4400,1,790,2,2,434784,439283,440073,136072,21,298.712,303.211,304.001,28.421,274.416,520.41,246.02,492.014,738.025
pro,cue,1,155938,pro_cue_run1_155938,I6,e,v,c,l,1,1,,stay,red,black,black,nonincentive,3200,1,916,1,1,447982,452481,453397,136072,22,311.91,316.409,317.325,28.421,274.416,520.41,246.02,492.014,738.025
pro,cue,1,155938,pro_cue_run1_155938,2A,e,v,c,l,1,1,,stay,red,black,black,nonincentive,4400,1,1047,1,1,459980,464479,465526,136072,23,323.908,328.407,329.454,28.421,274.416,520.41,246.02,492.014,738.025
pro,cue,1,155938,pro_cue_run1_155938,1B,o,c,c,n,2,2,,switch,red,black,black,nonincentive,3200,1,856,2,2,473178,477677,478533,136072,24,337.106,341.605,342.461,28.421,274.416,520.41,246.02,492.014,738.025
pro,cue,1,155938,pro_cue_run1_155938,D4,e,c,i,l,1,2,yes,switch,green,black,green,incentive,3200,1,877,2,2,485192,489692,490569,136072,25,349.12,353.62,354.497,28.421,274.416,520.41,246.02,492.014,738.025
pro,cue,1,155938,pro_cue_run1_155938,6I,e,v,c,n,1,1,,switch,red,black,black,nonincentive,4400,0,1306,2,1,497190,501690,502996,136072,26,361.118,365.618,366.924,28.421,274.416,520.41,246.02,492.014,738.025
pro,cue,1,155938,pro_cue_run1_155938,3E,o,v,i,n,2,1,yes,stay,green,black,green,incentive,2000,1,1141,2,2,510388,514888,516029,136072,27,374.316,378.816,379.957,28.421,274.416,520.41,246.02,492.014,738.025
pro,cue,1,155938,pro_cue_run1_155938,3E,o,v,i,l,2,1,yes,switch,green,black,green,incentive,4400,1,921,1,1,521187,525686,526607,136072,28,385.115,389.614,390.535,28.421,274.416,520.41,246.02,492.014,738.025
pro,cue,1,155938,pro_cue_run1_155938,2B,e,c,i,l,1,2,,stay,red,black,black,nonincentive,3200,1,1041,2,2,534384,538884,539925,136072,29,398.312,402.812,403.853,28.421,274.416,520.41,246.02,492.014,738.025
pro,cue,1,155938,pro_cue_run1_155938,5H,o,c,c,n,2,2,yes,switch,green,black,green,incentive,3200,1,771,2,2,546383,550882,551653,136072,30,410.311,414.81,415.581,28.421,274.416,520.41,246.02,492.014,738.025
pro,cue,1,155938,pro_cue_run1_155938,2A,e,v,c,n,1,1,,stay,red,black,black,nonincentive,2000,1,829,1,1,558381,562880,563709,136072,31,422.309,426.808,427.637,28.421,274.416,520.41,246.02,492.014,738.025
pro,cue,1,155938,pro_cue_run1_155938,B1,o,c,c,l,2,2,,switch,red,black,black,nonincentive,3200,1,809,2,2,569179,573678,574487,136072,32,433.107,437.606,438.415,28.421,274.416,520.41,246.02,492.014,738.025
pro,cue,1,155938,pro_cue_run1_155938,E3,o,v,i,n,2,1,yes,switch,green,black,green,incentive,4400,1,814,2,2,581177,585693,586507,136072,33,445.105,449.621,450.435,28.421,274.416,520.41,246.02,492.014,738.025
pro,cue,1,155938,pro_cue_run1_155938,1B,o,c,c,l,2,2,,switch,red,black,black,nonincentive,2000,0,803,1,2,594392,598891,599694,136072,34,458.32,462.819,463.622,28.421,274.416,520.41,246.02,492.014,738.025
pro,cue,1,155938,pro_cue_run1_155938,2A,e,v,c,l,1,1,,stay,red,black,black,nonincentive,4400,1,782,1,1,605190,609689,610471,136072,35,469.118,473.617,474.399,28.421,274.416,520.41,246.02,492.014,738.025
pro,cue,1,155938,pro_cue_run1_155938,A1,o,v,i,n,2,1,,switch,red,black,black,nonincentive,2000,0,1260,1,2,618388,622887,624147,136072,36,482.316,486.815,488.075,28.421,274.416,520.41,246.02,492.014,738.025
pro,cue,1,155938,pro_cue_run1_155938,1B,o,c,c,l,2,2,,,red,black,black,nonincentive,3200,1,657,2,2,659181,663681,664338,136072,37,523.109,527.609,528.266,28.421,274.416,520.41,246.02,492.014,738.025
pro,cue,1,155938,pro_cue_run1_155938,3E,o,v,i,l,2,1,yes,stay,green,black,green,incentive,3200,1,589,1,1,671179,675679,676268,136072,38,535.107,539.607,540.196,28.421,274.416,520.41,246.02,492.014,738.025
pro,cue,1,155938,pro_cue_run1_155938,A2,e,v,c,n,1,1,,switch,red,black,black,nonincentive,4400,1,1126,1,1,683177,687693,688819,136072,39,547.105,551.621,552.747,28.421,274.416,520.41,246.02,492.014,738.025
pro,cue,1,155938,pro_cue_run1_155938,B1,o,c,c,n,2,2,,stay,red,black,black,nonincentive,2000,1,694,2,2,696392,700891,701585,136072,40,560.32,564.819,565.513,28.421,274.416,520.41,246.02,492.014,738.025
pro,cue,1,155938,pro_cue_run1_155938,2A,e,v,c,l,1,1,,switch,red,black,black,nonincentive,4400,1,709,1,1,707190,711690,712399,136072,41,571.118,575.618,576.327,28.421,274.416,520.41,246.02,492.014,738.025
pro,cue,1,155938,pro_cue_run1_155938,1B,o,c,c,n,2,2,,switch,red,black,black,nonincentive,4400,1,716,2,2,720388,724887,725603,136072,42,584.316,588.815,589.531,28.421,274.416,520.41,246.02,492.014,738.025
pro,cue,1,155938,pro_cue_run1_155938,B1,o,c,c,l,2,2,,switch,red,black,black,nonincentive,3200,1,820,2,2,733586,738085,738905,136072,43,597.514,602.013,602.833,28.421,274.416,520.41,246.02,492.014,738.025
pro,cue,1,155938,pro_cue_run1_155938,1A,o,v,i,n,2,1,,switch,red,black,black,nonincentive,2000,1,1052,2,2,745584,750083,751135,136072,44,609.512,614.011,615.063,28.421,274.416,520.41,246.02,492.014,738.025
pro,cue,1,155938,pro_cue_run1_155938,2A,e,v,c,n,1,1,,stay,red,black,black,nonincentive,2000,1,643,1,1,756382,760882,761525,136072,45,620.31,624.81,625.453,28.421,274.416,520.41,246.02,492.014,738.025
pro,cue,1,155938,pro_cue_run1_155938,A2,e,v,c,l,1,1,,switch,red,black,black,nonincentive,2000,1,788,1,1,767181,771680,772468,136072,46,631.109,635.608,636.396,28.421,274.416,520.41,246.02,492.014,738.025
pro,cue,1,155938,pro_cue_run1_155938,E3,o,v,i,l,2,1,yes,stay,green,black,green,incentive,3200,1,562,1,1,777979,782478,783040,136072,47,641.907,646.406,646.968,28.421,274.416,520.41,246.02,492.014,738.025
pro,cue,1,155938,pro_cue_run1_155938,H5,o,c,c,l,2,2,yes,stay,green,black,green,incentive,3200,1,755,2,2,789977,794493,795248,136072,48,653.905,658.421,659.176,28.421,274.416,520.41,246.02,492.014,738.025
pro,cue,1,155938,pro_cue_run1_155938,6I,e,v,c,l,1,1,,stay,red,black,black,nonincentive,4400,1,1418,1,1,801992,806491,807909,136072,49,665.92,670.419,671.837,28.421,274.416,520.41,246.02,492.014,738.025
pro,cue,1,155938,pro_cue_run1_155938,6I,e,v,c,n,1,1,,switch,red,black,black,nonincentive,3200,1,1303,1,1,815190,819689,820992,136072,50,679.118,683.617,684.92,28.421,274.416,520.41,246.02,492.014,738.025
pro,cue,1,155938,pro_cue_run1_155938,4D,e,c,i,n,1,2,yes,stay,green,black,green,incentive,4400,1,718,1,1,827188,831687,832405,136072,51,691.116,695.615,696.333,28.421,274.416,520.41,246.02,492.014,738.025
pro,cue,1,155938,pro_cue_run1_155938,H5,o,c,c,n,2,2,,stay,red,black,black,nonincentive,2000,1,1165,2,2,840386,844885,846050,136072,52,704.314,708.813,709.978,28.421,274.416,520.41,246.02,492.014,738.025
pro,cue,1,155938,pro_cue_run1_155938,4D,e,c,i,l,1,2,yes,switch,green,black,green,incentive,4400,1,755,2,2,851184,855683,856438,136072,53,715.112,719.611,720.366,28.421,274.416,520.41,246.02,492.014,738.025
pro,cue,1,155938,pro_cue_run1_155938,3E,o,v,i,n,2,1,yes,switch,green,black,green,incentive,2000,1,790,2,2,864382,868881,869671,136072,54,728.31,732.809,733.599,28.421,274.416,520.41,246.02,492.014,738.025
pro,cue,2,155938,pro_cue_run2_155938,1B,o,c,c,n,2,2,,,red,black,black,nonincentive,2000,1,829,2,2,78790,83289,84118,47684,1,31.106,35.605,36.434,28.406,274.417,520.411,246.022,492.016,738.01
pro,cue,2,155938,pro_cue_run2_155938,A2,e,v,c,n,1,1,,stay,red,black,black,nonincentive,4400,1,825,1,1,89588,94087,94912,47684,2,41.904,46.403,47.228,28.406,274.417,520.411,246.022,492.016,738.01
pro,cue,2,155938,pro_cue_run2_155938,6I,e,v,c,l,1,1,yes,switch,green,black,green,incentive,4400,1,1120,1,1,102786,107285,108405,47684,3,55.102,59.601,60.721,28.406,274.417,520.411,246.022,492.016,738.01
pro,cue,2,155938,pro_cue_run2_155938,H5,o,c,c,l,2,2,,stay,red,black,black,nonincentive,3200,1,803,2,2,115984,120500,121303,47684,4,68.3,72.816,73.619,28.406,274.417,520.411,246.022,492.016,738.01
