session,task,run,subj,name,word,trial.type,pc,color,iti,time.target.onset.abs,time.scan.start,trial.num,listener1,listener2,correctcolor,response.final,acc.final,rt,item,time.target.onset,time.rt.abs,time.rt,acc,time.block1.on,time.block2.on,time.block3.on,time.block1.off,time.block2.off,time.block3.off
bas,stp,1,130518,bas_stp_run1_130518,YELLOW,c,pc50,yellow,1200,120769,90040,1,yellow,yellow,yellow,yellow,1,682,yellowYELLOW,30.729,121451,712.729,1,28.43,231.231,434.031,202.835,405.636,608.454
bas,stp,1,130518,bas_stp_run1_130518,BLACK,i,pc50,green,1200,124369,90040,2,green,green,green,green,1,781,greenBLACK,34.329,125150,815.329,1,28.43,231.231,434.031,202.835,405.636,608.454
bas,stp,1,130518,bas_stp_run1_130518,PURPLE,c,mc,purple,2400,127968,90040,3,purple,purple,purple,purple,1,669.5,purplePURPLE,37.928,128637.5,707.428,1,28.43,231.231,434.031,202.835,405.636,608.454
bas,stp,1,130518,bas_stp_run1_130518,PINK,c,pc50,pink,3600,132767,90040,4,pink,pink,pink,pink,1,724,pinkPINK,42.727,133491,766.727,1,28.43,231.231,434.031,202.835,405.636,608.454
bas,stp,1,130518,bas_stp_run1_130518,PINK,i,pc50,black,3600,138766,90040,5,black,black,black,black,1,649.5,blackPINK,48.726,139415.5,698.226,1,28.43,231.231,434.031,202.835,405.636,608.454
bas,stp,1,130518,bas_stp_run1_130518,GREEN,c,pc50,green,2400,144765,90040,6,green,green,green,green,1,639.5,greenGREEN,54.725,145404.5,694.225,1,28.43,231.231,434.031,202.835,405.636,608.454
bas,stp,1,130518,bas_stp_run1_130518,RED,c,mc,red,1200,149565,90040,7,red,red,red,red,1,671.5,redRED,59.525,150236.5,731.025,1,28.43,231.231,434.031,202.835,405.636,608.454
bas,stp,1,130518,bas_stp_run1_130518,RED,i,mc,white,1200,153164,90040,8,white,white,white,white,1,781,whiteRED,63.124,153945,844.124,1,28.43,231.231,434.031,202.835,405.636,608.454
bas,stp,1,130518,bas_stp_run1_130518,PURPLE,c,mc,purple,2400,156763,90040,9,purple,purple,purple,purple,1,717.5,purplePURPLE,66.723,157480.5,784.223,1,28.43,231.231,434.031,202.835,405.636,608.454
bas,stp,1,130518,bas_stp_run1_130518,BLUE,i,mc,purple,2400,161563,90040,10,purple,purple,purple,purple,1,803,purpleBLUE,71.523,162366,874.523,1,28.43,231.231,434.031,202.835,405.636,608.454
bas,stp,1,130518,bas_stp_run1_130518,YELLOW,i,pc50,pink,3600,166362,90040,11,pink,pink,pink,pink,1,764.5,pinkYELLOW,76.322,167126.5,840.822,1,28.43,231.231,434.031,202.835,405.636,608.454
bas,stp,1,130518,bas_stp_run1_130518,GREEN,c,pc50,green,3600,172361,90040,12,green,green,green,green,1,616.5,greenGREEN,82.321,172977.5,698.821,1,28.43,231.231,434.031,202.835,405.636,608.454
bas,stp,1,130518,bas_stp_run1_130518,WHITE,c,mc,white,1200,178360,90040,13,white,white,white,white,1,654,whiteWHITE,88.32,179014,742.32,1,28.43,231.231,434.031,202.835,405.636,608.454
bas,stp,1,130518,bas_stp_run1_130518,RED,c,mc,red,2400,181959,90040,14,red,red,red,red,1,790,redRED,91.919,182749,881.919,1,28.43,231.231,434.031,202.835,405.636,608.454
bas,stp,1,130518,bas_stp_run1_130518,PURPLE,i,mc,red,3600,186759,90040,15,red,red,red,red,1,739.5,redPURPLE,96.719,187498.5,836.219,1,28.43,231.231,434.031,202.835,405.636,608.454
bas,stp,1,130518,bas_stp_run1_130518,BLACK,c,pc50,black,2400,192758,90040,16,black,black,black,black,1,703,blackBLACK,102.718,193461,805.718,1,28.43,231.231,434.031,202.835,405.636,608.454
bas,stp,1,130518,bas_stp_run1_130518,WHITE,c,mc,white,2400,197557,90040,17,white,white,white,white,1,625.5,whiteWHITE,107.517,198182.5,733.017,1,28.43,231.231,434.031,202.835,405.636,608.454
bas,stp,1,130518,bas_stp_run1_130518,BLUE,c,mc,blue,3600,202356,90040,18,blue,blue,blue,blue,1,546,blueBLUE,112.316,202902,658.316,1,28.43,231.231,434.031,202.835,405.636,608.454
bas,stp,1,130518,bas_stp_run1_130518,PURPLE,i,mc,white,1200,208355,90040,19,white,white,white,white,1,714,whitePURPLE,118.315,209069,832.315,1,28.43,231.231,434.031,202.835,405.636,608.454
bas,stp,1,130518,bas_stp_run1_130518,PURPLE,c,mc,purple,2400,211955,90040,20,purple,purple,purple,purple,1,694.5,purplePURPLE,121.915,212649.5,816.415,1,28.43,231.231,434.031,202.835,405.636,608.454
bas,stp,1,130518,bas_stp_run1_130518,WHITE,c,mc,white,1200,216754,90040,21,white,white,white,white,1,890.5,whiteWHITE,126.714,217644.5,1017.214,1,28.43,231.231,434.031,202.835,405.636,608.454
bas,stp,1,130518,bas_stp_run1_130518,BLUE,c,mc,blue,1200,220370,90040,22,blue,blue,blue,blue,1,636.5,blueBLUE,130.33,221006.5,766.83,1,28.43,231.231,434.031,202.835,405.636,608.454
bas,stp,1,130518,bas_stp_run1_130518,BLUE,c,mc,blue,3600,223969,90040,23,blue,blue,blue,blue,1,535.5,blueBLUE,133.929,224504.5,669.429,1,28.43,231.231,434.031,202.835,405.636,608.454
bas,stp,1,130518,bas_stp_run1_130518,BLUE,c,mc,blue,3600,229968,90040,24,blue,blue,blue,blue,1,633,blueBLUE,139.928,230601,772.928,1,28.43,231.231,434.031,202.835,405.636,608.454
bas,stp,1,130518,bas_stp_run1_130518,YELLOW,i,pc50,black,1200,235967,90040,25,black,black,black,black,1,811.5,blackYELLOW,145.927,236778.5,957.427,1,28.43,231.231,434.031,202.835,405.636,608.454
bas,stp,1,130518,bas_stp_run1_130518,RED,c,mc,red,2400,239567,90040,26,red,red,red,red,1,642.5,redRED,149.527,240209.5,792.027,1,28.43,231.231,434.031,202.835,405.636,608.454
bas,stp,1,130518,bas_stp_run1_130518,PURPLE,c,mc,purple,2400,244366,90040,27,purple,purple,purple,purple,1,639.5,purplePURPLE,154.326,245005.5,793.826,1,28.43,231.231,434.031,202.835,405.636,608.454
bas,stp,1,130518,bas_stp_run1_130518,WHITE,c,mc,white,2400,249165,90040,28,white,white,white,white,1,511,whiteWHITE,159.125,249676,670.125,1,28.43,231.231,434.031,202.835,405.636,608.454
bas,stp,1,130518,bas_stp_run1_130518,WHITE,i,mc,blue,2400,253965,90040,29,blue,blue,blue,blue,1,720,blueWHITE,163.925,254685,883.925,1,28.43,231.231,434.031,202.835,405.636,608.454
bas,stp,1,130518,bas_stp_run1_130518,RED,c,mc,red,3600,258764,90040,30,red,red,red,red,1,522.5,redRED,168.724,259286.5,691.224,1,28.43,231.231,434.031,202.835,405.636,608.454
bas,stp,1,130518,bas_stp_run1_130518,GREEN,i,pc50,pink,3600,264763,90040,31,pink,pink,pink,pink,1,728.5,pinkGREEN,174.723,265491.5,903.223,1,28.43,231.231,434.031,202.835,405.636,608.454
bas,stp,1,130518,bas_stp_run1_130518,YELLOW,c,pc50,yellow,1200,270762,90040,32,yellow,yellow,yellow,yellow,1,676,yellowYELLOW,180.722,271438,856.722,1,28.43,231.231,434.031,202.835,405.636,608.454
bas,stp,1,130518,bas_stp_run1_130518,PURPLE,c,mc,purple,1200,274361,90040,33,purple,purple,purple,purple,1,845,purplePURPLE,184.321,275206,1029.321,1,28.43,231.231,434.031,202.835,405.636,608.454
bas,stp,1,130518,bas_stp_run1_130518,GREEN,i,pc50,yellow,1200,277961,90040,34,yellow,yellow,yellow,yellow,1,1257.5,yellowGREEN,187.921,279218.5,1445.421,1,28.43,231.231,434.031,202.835,405.636,608.454
bas,stp,1,130518,bas_stp_run1_130518,BLUE,i,mc,red,3600,281560,90040,35,red,red,red,red,1,738.5,redBLUE,191.52,282298.5,930.02,1,28.43,231.231,434.031,202.835,405.636,608.454
bas,stp,1,130518,bas_stp_run1_130518,BLUE,c,mc,blue,3600,287559,90040,36,blue,blue,blue,blue,1,638.5,blueBLUE,197.519,288197.5,836.019,1,28.43,231.231,434.031,202.835,405.636,608.454
bas,stp,1,130518,bas_stp_run1_130518,PURPLE,i,mc,red,1200,323570,90040,37,red,red,red,red,1,711,redPURPLE,233.53,324281,944.53,1,28.43,231.231,434.031,202.835,405.636,608.454
bas,stp,1,130518,bas_stp_run1_130518,BLUE,c,mc,blue,1200,327170,90040,38,blue,blue,blue,blue,1,679.5,blueBLUE,237.13,327849.5,916.63,1,28.43,231.231,434.031,202.835,405.636,608.454
bas,stp,1,130518,bas_stp_run1_130518,RED,c,mc,red,2400,330769,90040,39,red,red,red,red,1,674.5,redRED,240.729,331443.5,915.229,1,28.43,231.231,434.031,202.835,405.636,608.454
bas,stp,1,130518,bas_stp_run1_130518,WHITE,c,mc,white,3600,335568,90040,40,white,white,white,white,1,574.5,whiteWHITE,245.528,336142.5,820.028,1,28.43,231.231,434.031,202.835,405.636,608.454
bas,stp,1,130518,bas_stp_run1_130518,BLACK,i,pc50,green,2400,341567,90040,41,green,green,green,green,1,747.5,greenBLACK,251.527,342314.5,999.027,1,28.43,231.231,434.031,202.835,405.636,608.454
bas,stp,1,130518,bas_stp_run1_130518,BLUE,c,mc,blue,3600,346367,90040,42,blue,blue,blue,blue,1,700,blueBLUE,256.327,347067,956.327,1,28.43,231.231,434.031,202.835,405.636,608.454
bas,stp,1,130518,bas_stp_run1_130518,WHITE,c,mc,white,2400,352366,90040,43,white,white,white,white,1,777,whiteWHITE,262.326,353143,1039.326,1,28.43,231.231,434.031,202.835,405.636,608.454
bas,stp,1,130518,bas_stp_run1_130518,YELLOW,i,pc50,black,1200,357165,90040,44,black,black,black,black,1,684,blackYELLOW,267.125,357849,951.125,1,28.43,231.231,434.031,202.835,405.636,608.454
bas,stp,1,130518,bas_stp_run1_130518,YELLOW,c,pc50,yellow,3600,360764,90040,45,yellow,yellow,yellow,yellow,1,676.5,yellowYELLOW,270.724,361440.5,947.224,1,28.43,231.231,434.031,202.835,405.636,608.454
bas,stp,1,130518,bas_stp_run1_130518,PURPLE,c,mc,purple,3600,366763,90040,46,purple,purple,purple,purple,1,726.5,purplePURPLE,276.723,367489.5,1003.223,1,28.43,231.231,434.031,202.835,405.636,608.454
bas,stp,1,130518,bas_stp_run1_130518,PURPLE,c,mc,purple,1200,372762,90040,47,purple,purple,purple,purple,1,749.5,purplePURPLE,282.722,373511.5,1032.222,1,28.43,231.231,434.031,202.835,405.636,608.454
bas,stp,1,130518,bas_stp_run1_130518,GREEN,i,pc50,yellow,2400,376362,90040,48,"yrllow """"""""ye..yellow""""""""","yellow- """"""""yel..yellow""""""""",yellow,yellow,1,868,yellowGREEN,286.322,377230,1154.322,1,28.43,231.231,434.031,202.835,405.636,608.454
bas,stp,1,130518,bas_stp_run1_130518,WHITE,c,mc,white,1200,381161,90040,49,white,white,white,white,1,627,whiteWHITE,291.121,381788,918.121,1,28.43,231.231,434.031,202.835,405.636,608.454
bas,stp,1,130518,bas_stp_run1_130518,BLUE,c,mc,blue,1200,384760,90040,50,blue,blue,blue,blue,1,799,blueBLUE,294.72,385559,1093.72,1,28.43,231.231,434.031,202.835,405.636,608.454
bas,stp,1,130518,bas_stp_run1_130518,YELLOW,c,pc50,yellow,2400,388360,90040,51,yellow,yellow,yellow,yellow,1,684.5,yellowYELLOW,298.32,389044.5,982.82,1,28.43,231.231,434.031,202.835,405.636,608.454
bas,stp,1,130518,bas_stp_run1_130518,BLUE,i,mc,purple,1200,393159,90040,52,purple,purple,purple,purple,1,783,purpleBLUE,303.119,393942,1086.119,1,28.43,231.231,434.031,202.835,405.636,608.454
bas,stp,1,130518,bas_stp_run1_130518,RED,c,mc,red,3600,396758,90040,53,red,red,red,red,1,663,redRED,306.718,397421,969.718,1,28.43,231.231,434.031,202.835,405.636,608.454
bas,stp,1,130518,bas_stp_run1_130518,PURPLE,i,mc,white,2400,402758,90040,54,white,white,white,white,1,608,whitePURPLE,312.718,403366,920.718,1,28.43,231.231,434.031,202.835,405.636,608.454
bas,stp,1,130518,bas_stp_run1_130518,GREEN,i,pc50,pink,1200,407557,90040,55,pink,pink,pink,pink,1,682.5,pinkGREEN,317.517,408239.5,1000.017,1,28.43,231.231,434.031,202.835,405.636,608.454
bas,stp,1,130518,bas_stp_run1_130518,BLACK,c,pc50,black,3600,411156,90040,56,black,black,black,black,1,770,blackBLACK,321.116,411926,1091.116,1,28.43,231.231,434.031,202.835,405.636,608.454
bas,stp,1,130518,bas_stp_run1_130518,WHITE,i,mc,blue,3600,417155,90040,57,blue,blue,blue,blue,1,774,blueWHITE,327.115,417929,1101.115,1,28.43,231.231,434.031,202.835,405.636,608.454
bas,stp,1,130518,bas_stp_run1_130518,BLUE,i,mc,red,2400,423154,90040,58,red,red,red,red,1,926,redBLUE,333.114,424080,1259.114,1,28.43,231.231,434.031,202.835,405.636,608.454
bas,stp,1,130518,bas_stp_run1_130518,RED,c,mc,red,3600,427970,90040,59,red,red,red,red,1,698,redRED,337.93,428668,1035.93,1,28.43,231.231,434.031,202.835,405.636,608.454
bas,stp,1,130518,bas_stp_run1_130518,PURPLE,c,mc,purple,2400,433969,90040,60,purple,purple,purple,purple,1,695.5,purplePURPLE,343.929,434664.5,1039.429,1,28.43,231.231,434.031,202.835,405.636,608.454
bas,stp,1,130518,bas_stp_run1_130518,RED,i,mc,white,1200,438768,90040,61,white,white,white,white,1,919,whiteRED,348.728,439687,1267.728,1,28.43,231.231,434.031,202.835,405.636,608.454
bas,stp,1,130518,bas_stp_run1_130518,PINK,c,pc50,pink,3600,442368,90040,62,pink,pink,pink,pink,1,1032.5,pinkPINK,352.328,443400.5,1384.828,1,28.43,231.231,434.031,202.835,405.636,608.454
bas,stp,1,130518,bas_stp_run1_130518,PURPLE,c,mc,purple,2400,448367,90040,63,purple,purple,purple,purple,1,698.5,purplePURPLE,358.327,449065.5,1056.827,1,28.43,231.231,434.031,202.835,405.636,608.454
bas,stp,1,130518,bas_stp_run1_130518,PINK,i,pc50,black,3600,453166,90040,64,black,black,black,black,1,824.5,blackPINK,363.126,453990.5,1187.626,1,28.43,231.231,434.031,202.835,405.636,608.454
bas,stp,1,130518,bas_stp_run1_130518,GREEN,c,pc50,green,2400,459165,90040,65,green,green,green,green,1,790,greenGREEN,369.125,459955,1159.125,1,28.43,231.231,434.031,202.835,405.636,608.454
bas,stp,1,130518,bas_stp_run1_130518,RED,c,mc,red,2400,463964,90040,66,red,red,red,red,1,755.5,redRED,373.924,464719.5,1129.424,1,28.43,231.231,434.031,202.835,405.636,608.454
bas,stp,1,130518,bas_stp_run1_130518,BLUE,c,mc,blue,3600,468764,90040,67,blue,blue,blue,blue,1,718,blueBLUE,378.724,469482,1096.724,1,28.43,231.231,434.031,202.835,405.636,608.454
bas,stp,1,130518,bas_stp_run1_130518,GREEN,c,pc50,green,1200,474763,90040,68,green,green,green,green,1,791,greenGREEN,384.723,475554,1175.723,1,28.43,231.231,434.031,202.835,405.636,608.454
bas,stp,1,130518,bas_stp_run1_130518,YELLOW,i,pc50,pink,1200,478362,90040,69,pink,pink,pink,pink,1,809.5,pinkYELLOW,388.322,479171.5,1197.822,1,28.43,231.231,434.031,202.835,405.636,608.454
bas,stp,1,130518,bas_stp_run1_130518,BLUE,c,mc,blue,1200,481962,90040,70,blue,blue,blue,blue,1,721,blueBLUE,391.922,482683,1112.922,1,28.43,231.231,434.031,202.835,405.636,608.454
bas,stp,1,130518,bas_stp_run1_130518,WHITE,c,mc,white,3600,485561,90040,71,white,white,white,white,1,588,whiteWHITE,395.521,486149,983.521,1,28.43,231.231,434.031,202.835,405.636,608.454
bas,stp,1,130518,bas_stp_run1_130518,PURPLE,c,mc,purple,2400,491560,90040,72,purple,purple,purple,purple,1,692,purplePURPLE,401.52,492252,1093.52,1,28.43,231.231,434.031,202.835,405.636,608.454
bas,stp,1,130518,bas_stp_run1_130518,PURPLE,c,mc,purple,2400,526354,90040,73,purple,purple,purple,purple,1,609.5,purplePURPLE,436.314,526963.5,1045.814,1,28.43,231.231,434.031,202.835,405.636,608.454
bas,stp,1,130518,bas_stp_run1_130518,PURPLE,i,mc,white,3600,531154,90040,74,white,white,white,white,1,724,whitePURPLE,441.114,531878,1165.114,1,28.43,231.231,434.031,202.835,405.636,608.454
bas,stp,1,130518,bas_stp_run1_130518,RED,i,mc,white,3600,537169,90040,75,white,white,white,white,1,789,whiteRED,447.129,537958,1236.129,1,28.43,231.231,434.031,202.835,405.636,608.454
bas,stp,1,130518,bas_stp_run1_130518,WHITE,c,mc,white,2400,543168,90040,76,white,white,white,white,1,688.5,whiteWHITE,453.128,543856.5,1141.628,1,28.43,231.231,434.031,202.835,405.636,608.454
bas,stp,1,130518,bas_stp_run1_130518,GREEN,c,pc50,green,3600,547968,90040,77,green,green,green,green,1,819.5,greenGREEN,457.928,548787.5,1277.428,1,28.43,231.231,434.031,202.835,405.636,608.454
bas,stp,1,130518,bas_stp_run1_130518,GREEN,i,pc50,pink,2400,553967,90040,78,pink,pink,pink,pink,1,750,pinkGREEN,463.927,554717,1213.927,1,28.43,231.231,434.031,202.835,405.636,608.454
bas,stp,1,130518,bas_stp_run1_130518,GREEN,i,pc50,yellow,1200,558766,90040,79,yellow,yellow,yellow,yellow,1,1093,yellowGREEN,468.726,559859,1561.726,1,28.43,231.231,434.031,202.835,405.636,608.454
bas,stp,1,130518,bas_stp_run1_130518,PURPLE,c,mc,purple,2400,562365,90040,80,purple,purple,purple,purple,1,686.5,purplePURPLE,472.325,563051.5,1158.825,1,28.43,231.231,434.031,202.835,405.636,608.454
bas,stp,1,130518,bas_stp_run1_130518,BLUE,c,mc,blue,1200,567165,90040,81,blue,blue,blue,blue,1,580,blueBLUE,477.125,567745,1057.125,1,28.43,231.231,434.031,202.835,405.636,608.454
bas,stp,1,130518,bas_stp_run1_130518,PURPLE,i,mc,red,3600,570764,90040,82,red,red,red,red,1,730,redPURPLE,480.724,571494,1210.724,1,28.43,231.231,434.031,202.835,405.636,608.454
bas,stp,1,130518,bas_stp_run1_130518,PURPLE,c,mc,purple,1200,576763,90040,83,purple,purple,purple,purple,1,796,purplePURPLE,486.723,577559,1282.723,1,28.43,231.231,434.031,202.835,405.636,608.454
bas,stp,1,130518,bas_stp_run1_130518,PURPLE,c,mc,purple,1200,580363,90040,84,purple,purple,purple,purple,1,982.5,purplePURPLE,490.323,581345.5,1472.823,1,28.43,231.231,434.031,202.835,405.636,608.454
bas,stp,1,130518,bas_stp_run1_130518,WHITE,i,mc,blue,3600,583962,90040,85,blue,blue,blue,blue,1,786.5,blueWHITE,493.922,584748.5,1280.422,1,28.43,231.231,434.031,202.835,405.636,608.454
bas,stp,1,130518,bas_stp_run1_130518,BLACK,i,pc50,green,2400,589961,90040,86,green,green,green,green,1,1378.5,greenBLACK,499.921,591339.5,1878.421,1,28.43,231.231,434.031,202.835,405.636,608.454
bas,stp,1,130518,bas_stp_run1_130518,BLUE,c,mc,blue,1200,594760,90040,87,blue,blue,blue,blue,1,546,blueBLUE,504.72,595306,1050.72,1,28.43,231.231,434.031,202.835,405.636,608.454
bas,stp,1,130518,bas_stp_run1_130518,RED,c,mc,red,1200,598360,90040,88,red,red,red,red,1,634.5,redRED,508.32,598994.5,1142.82,1,28.43,231.231,434.031,202.835,405.636,608.454
bas,stp,1,130518,bas_stp_run1_130518,BLUE,c,mc,blue,3600,601959,90040,89,blue,blue,blue,blue,1,684,blueBLUE,511.919,602643,1195.919,1,28.43,231.231,434.031,202.835,405.636,608.454
bas,stp,1,130518,bas_stp_run1_130518,BLUE,c,mc,blue,2400,607958,90040,90,blue,blue,blue,blue,1,576,blueBLUE,517.918,608534,1093.918,1,28.43,231.231,434.031,202.835,405.636,608.454
bas,stp,1,130518,bas_stp_run1_130518,RED,c,mc,red,3600,612757,90040,91,red,red,red,red,1,636.5,redRED,522.717,613393.5,1159.217,1,28.43,231.231,434.031,202.835,405.636,608.454
bas,stp,1,130518,bas_stp_run1_130518,BLUE,c,mc,blue,1200,618756,90040,92,blue,blue,blue,blue,1,584,blueBLUE,528.716,619340,1112.716,1,28.43,231.231,434.031,202.835,405.636,608.454
bas,stp,1,130518,bas_stp_run1_130518,WHITE,c,mc,white,2400,622356,90040,93,white,white,white,white,1,661.5,whiteWHITE,532.316,623017.5,1193.816,1,28.43,231.231,434.031,202.835,405.636,608.454
bas,stp,1,130518,bas_stp_run1_130518,PURPLE,c,mc,purple,1200,627155,90040,94,purple,purple,purple,purple,1,643.5,purplePURPLE,537.115,627798.5,1180.615,1,28.43,231.231,434.031,202.835,405.636,608.454
bas,stp,1,130518,bas_stp_run1_130518,BLUE,i,mc,purple,2400,630754,90040,95,purple,purple,purple,purple,1,1132,purpleBLUE,540.714,631886,1672.714,1,28.43,231.231,434.031,202.835,405.636,608.454
bas,stp,1,130518,bas_stp_run1_130518,GREEN,c,pc50,green,3600,635554,90040,96,green,green,green,green,1,747.5,greenGREEN,545.514,636301.5,1293.014,1,28.43,231.231,434.031,202.835,405.636,608.454
bas,stp,1,130518,bas_stp_run1_130518,WHITE,c,mc,white,2400,641569,90040,97,white,white,white,white,1,790.5,whiteWHITE,551.529,642359.5,1342.029,1,28.43,231.231,434.031,202.835,405.636,608.454
bas,stp,1,130518,bas_stp_run1_130518,RED,c,mc,red,1200,646369,90040,98,red,red,red,red,1,847.5,redRED,556.329,647216.5,1403.829,1,28.43,231.231,434.031,202.835,405.636,608.454
bas,stp,1,130518,bas_stp_run1_130518,BLACK,c,pc50,black,2400,649968,90040,99,black,black,black,black,1,915.5,blackBLACK,559.928,650883.5,1475.428,1,28.43,231.231,434.031,202.835,405.636,608.454
bas,stp,1,130518,bas_stp_run1_130518,RED,c,mc,red,1200,654767,90040,100,red,red,red,red,1,695,redRED,564.727,655462,1259.727,1,28.43,231.231,434.031,202.835,405.636,608.454
bas,stp,1,130518,bas_stp_run1_130518,PINK,i,pc50,black,1200,658367,90040,101,black,black,black,black,1,772,blackPINK,568.327,659139,1340.327,1,28.43,231.231,434.031,202.835,405.636,608.454
bas,stp,1,130518,bas_stp_run1_130518,YELLOW,c,pc50,yellow,3600,661966,90040,102,yellow,yellow,yellow,yellow,1,973.5,yellowYELLOW,571.926,662939.5,1545.426,1,28.43,231.231,434.031,202.835,405.636,608.454
bas,stp,1,130518,bas_stp_run1_130518,BLUE,i,mc,red,2400,667965,90040,103,red,red,red,red,1,835,redBLUE,577.925,668800,1412.925,1,28.43,231.231,434.031,202.835,405.636,608.454
bas,stp,1,130518,bas_stp_run1_130518,PINK,c,pc50,pink,3600,672764,90040,104,pink,pink,pink,pink,1,785,pinkPINK,582.724,673549,1367.724,1,28.43,231.231,434.031,202.835,405.636,608.454
bas,stp,1,130518,bas_stp_run1_130518,YELLOW,c,pc50,yellow,3600,678763,90040,105,yellow,yellow,yellow,yellow,1,739,yellowYELLOW,588.723,679502,1327.723,1,28.43,231.231,434.031,202.835,405.636,608.454
bas,stp,1,130518,bas_stp_run1_130518,WHITE,c,mc,white,2400,684763,90040,106,white,white,white,white,1,806,whiteWHITE,594.723,685569,1400.723,1,28.43,231.231,434.031,202.835,405.636,608.454
bas,stp,1,130518,bas_stp_run1_130518,YELLOW,i,pc50,pink,1200,689562,90040,107,pink,pink,pink,pink,1,823.5,pinkYELLOW,599.522,690385.5,1423.022,1,28.43,231.231,434.031,202.835,405.636,608.454
bas,stp,1,130518,bas_stp_run1_130518,YELLOW,i,pc50,black,3600,693161,90040,108,black,black,black,black,1,1393.5,blackYELLOW,603.121,694554.5,1996.621,1,28.43,231.231,434.031,202.835,405.636,608.454
bas,stp,2,130518,bas_stp_run2_130518,WHITE,i,mc,purple,2400,71645,40939,1,purple,purple,purple,purple,1,711,purpleWHITE,30.706,72356,741.706,1,28.406,231.207,434.008,202.829,405.646,608.43
bas,stp,2,130518,bas_stp_run2_130518,PURPLE,c,mc,purple,2400,76461,40939,2,purple,purple,purple,purple,1,665.5,purplePURPLE,35.522,77126.5,701.022,1,28.406,231.207,434.008,202.829,405.646,608.43
bas,stp,2,130518,bas_stp_run2_130518,RED,c,mc,red,2400,81260,40939,3,red,red,red,red,1,672.5,redRED,40.321,81932.5,712.821,1,28.406,231.207,434.008,202.829,405.646,608.43
bas,stp,2,130518,bas_stp_run2_130518,WHITE,i,mc,red,2400,86059,40939,4,red,red,red,red,1,963,redWHITE,45.12,87022,1008.12,1,28.406,231.207,434.008,202.829,405.646,608.43
bas,stp,2,130518,bas_stp_run2_130518,WHITE,c,mc,white,3600,90859,40939,5,white,white,white,white,1,757.5,whiteWHITE,49.92,91616.5,807.42,1,28.406,231.207,434.008,202.829,405.646,608.43
bas,stp,2,130518,bas_stp_run2_130518,PINK,c,pc50,pink,3600,96858,40939,6,pink,pink,pink,pink,1,907.5,pinkPINK,55.919,97765.5,963.419,1,28.406,231.207,434.008,202.829,405.646,608.43
bas,stp,2,130518,bas_stp_run2_130518,PINK,c,pc50,pink,3600,102857,40939,7,pink,pink,pink,pink,1,788,pinkPINK,61.918,103645,849.918,1,28.406,231.207,434.008,202.829,405.646,608.43
bas,stp,2,130518,bas_stp_run2_130518,GREEN,c,pc50,green,1200,108856,40939,8,green,green,green,green,1,982,greenGREEN,67.917,109838,1049.917,1,28.406,231.207,434.008,202.829,405.646,608.43
bas,stp,2,130518,bas_stp_run2_130518,RED,c,mc,red,1200,112455,40939,9,red,red,red,red,1,877,redRED,71.516,113332,948.516,1,28.406,231.207,434.008,202.829,405.646,608.43
bas,stp,2,130518,bas_stp_run2_130518,RED,c,mc,red,1200,116055,40939,10,red,red,red,red,1,1695,redRED,75.116,117750,1770.116,1,28.406,231.207,434.008,202.829,405.646,608.43
bas,stp,2,130518,bas_stp_run2_130518,BLACK,i,pc50,pink,1200,119654,40939,11,pink,pink,pink,pink,1,797,pinkBLACK,78.715,120451,875.715,1,28.406,231.207,434.008,202.829,405.646,608.43
bas,stp,2,130518,bas_stp_run2_130518,BLUE,c,mc,blue,3600,123253,40939,12,blue,blue,blue,blue,1,711.5,blueBLUE,82.314,123964.5,793.814,1,28.406,231.207,434.008,202.829,405.646,608.43
bas,stp,2,130518,bas_stp_run2_130518,RED,c,mc,red,1200,129252,40939,13,red,red,red,red,1,781.5,redRED,88.313,130033.5,869.813,1,28.406,231.207,434.008,202.829,405.646,608.43
bas,stp,2,130518,bas_stp_run2_130518,RED,c,mc,red,2400,132852,40939,14,red,red,red,red,1,583,redRED,91.913,133435,674.913,1,28.406,231.207,434.008,202.829,405.646,608.43
bas,stp,2,130518,bas_stp_run2_130518,PURPLE,c,mc,purple,3600,137651,40939,15,purple,purple,purple,purple,1,646.5,purplePURPLE,96.712,138297.5,743.212,1,28.406,231.207,434.008,202.829,405.646,608.43
bas,stp,2,130518,bas_stp_run2_130518,YELLOW,c,pc50,yellow,2400,143650,40939,16,yellow,yellow,yellow,yellow,1,956,yellowYELLOW,102.711,144606,1058.711,1,28.406,231.207,434.008,202.829,405.646,608.43
bas,stp,2,130518,bas_stp_run2_130518,BLUE,c,mc,blue,3600,148449,40939,17,blue,blue,blue,blue,1,651,blueBLUE,107.51,149100,758.51,1,28.406,231.207,434.008,202.829,405.646,608.43
bas,stp,2,130518,bas_stp_run2_130518,BLACK,c,pc50,black,3600,154448,40939,18,black,black,black,black,1,630.5,blackBLACK,113.509,155078.5,744.009,1,28.406,231.207,434.008,202.829,405.646,608.43
bas,stp,2,130518,bas_stp_run2_130518,PURPLE,c,mc,purple,1200,160447,40939,19,purple,purple,purple,purple,1,786,purplePURPLE,119.508,161233,905.508,1,28.406,231.207,434.008,202.829,405.646,608.43
bas,stp,2,130518,bas_stp_run2_130518,BLACK,i,pc50,yellow,2400,164047,40939,20,yellow,yellow,yellow,yellow,1,1285,yellowBLACK,123.108,165332,1408.108,1,28.406,231.207,434.008,202.829,405.646,608.43
bas,stp,2,130518,bas_stp_run2_130518,BLACK,c,pc50,black,2400,168846,40939,21,black,black,black,black,1,600,blackBLACK,127.907,169446,727.907,1,28.406,231.207,434.008,202.829,405.646,608.43
bas,stp,2,130518,bas_stp_run2_130518,RED,i,mc,purple,3600,173645,40939,22,purple,purple,purple,purple,1,845,purpleRED,132.706,174490,977.706,1,28.406,231.207,434.008,202.829,405.646,608.43
bas,stp,2,130518,bas_stp_run2_130518,BLUE,c,mc,blue,1200,179661,40939,23,blue,blue,blue,blue,1,723,blueBLUE,138.722,180384,861.722,1,28.406,231.207,434.008,202.829,405.646,608.43
bas,stp,2,130518,bas_stp_run2_130518,PURPLE,i,mc,blue,1200,183261,40939,24,blue,blue,blue,blue,1,1290,bluePURPLE,142.322,184551,1432.322,1,28.406,231.207,434.008,202.829,405.646,608.43
bas,stp,2,130518,bas_stp_run2_130518,BLUE,i,mc,white,3600,186860,40939,25,white,white,white,white,1,606,whiteBLUE,145.921,187466,751.921,1,28.406,231.207,434.008,202.829,405.646,608.43
bas,stp,2,130518,bas_stp_run2_130518,WHITE,c,mc,white,3600,192859,40939,26,white,white,white,white,1,777,whiteWHITE,151.92,193636,928.92,1,28.406,231.207,434.008,202.829,405.646,608.43
bas,stp,2,130518,bas_stp_run2_130518,WHITE,c,mc,white,2400,198858,40939,27,white,white,white,white,1,777.5,whiteWHITE,157.919,199635.5,935.419,1,28.406,231.207,434.008,202.829,405.646,608.43
bas,stp,2,130518,bas_stp_run2_130518,PINK,i,pc50,yellow,1200,203657,40939,28,yellow,yellow,yellow,yellow,1,1415,yellowPINK,162.718,205072,1577.718,1,28.406,231.207,434.008,202.829,405.646,608.43
bas,stp,2,130518,bas_stp_run2_130518,PINK,i,pc50,green,2400,207257,40939,29,green,green,green,green,1,809,greenPINK,166.318,208066,975.318,1,28.406,231.207,434.008,202.829,405.646,608.43
bas,stp,2,130518,bas_stp_run2_130518,WHITE,c,mc,white,1200,212056,40939,30,white,white,white,white,1,700,whiteWHITE,171.117,212756,871.117,1,28.406,231.207,434.008,202.829,405.646,608.43
bas,stp,2,130518,bas_stp_run2_130518,BLUE,c,mc,blue,3600,215655,40939,31,blue,blue,blue,blue,1,812,blueBLUE,174.716,216467,986.716,1,28.406,231.207,434.008,202.829,405.646,608.43
bas,stp,2,130518,bas_stp_run2_130518,RED,i,mc,blue,2400,221654,40939,32,blue,blue,blue,blue,1,551.5,blueRED,180.715,222205.5,732.215,1,28.406,231.207,434.008,202.829,405.646,608.43
bas,stp,2,130518,bas_stp_run2_130518,GREEN,i,pc50,black,2400,226454,40939,33,black,black,black,black,1,770.5,blackGREEN,185.515,227224.5,956.015,1,28.406,231.207,434.008,202.829,405.646,608.43
bas,stp,2,130518,bas_stp_run2_130518,PURPLE,c,mc,purple,3600,231253,40939,34,purple,purple,purple,purple,1,749.5,purplePURPLE,190.314,232002.5,939.814,1,28.406,231.207,434.008,202.829,405.646,608.43
bas,stp,2,130518,bas_stp_run2_130518,YELLOW,i,pc50,green,1200,237252,40939,35,green,green,green,green,1,1078,greenYELLOW,196.313,238330,1274.313,1,28.406,231.207,434.008,202.829,405.646,608.43
bas,stp,2,130518,bas_stp_run2_130518,WHITE,c,mc,white,1200,240851,40939,36,white,white,white,white,1,766.5,whiteWHITE,199.912,241617.5,966.412,1,28.406,231.207,434.008,202.829,405.646,608.43
bas,stp,2,130518,bas_stp_run2_130518,BLACK,c,pc50,black,3600,274446,40939,37,black,black,black,black,1,537.5,blackBLACK,233.507,274983.5,771.007,1,28.406,231.207,434.008,202.829,405.646,608.43
bas,stp,2,130518,bas_stp_run2_130518,RED,c,mc,red,2400,280445,40939,38,red,red,red,red,1,753,redRED,239.506,281198,992.506,1,28.406,231.207,434.008,202.829,405.646,608.43
bas,stp,2,130518,bas_stp_run2_130518,RED,i,mc,blue,2400,285261,40939,39,blue,blue,blue,blue,1,847.5,blueRED,244.322,286108.5,1091.822,1,28.406,231.207,434.008,202.829,405.646,608.43
bas,stp,2,130518,bas_stp_run2_130518,BLUE,c,mc,blue,1200,290060,40939,40,blue,blue,blue,blue,1,685,blueBLUE,249.121,290745,934.121,1,28.406,231.207,434.008,202.829,405.646,608.43
bas,stp,2,130518,bas_stp_run2_130518,PURPLE,c,mc,purple,2400,293660,40939,41,purple,purple,purple,purple,1,1079,purplePURPLE,252.721,294739,1331.721,1,28.406,231.207,434.008,202.829,405.646,608.43
bas,stp,2,130518,bas_stp_run2_130518,PURPLE,c,mc,purple,1200,298459,40939,42,purple,purple,purple,purple,1,803,purplePURPLE,257.52,299262,1060.52,1,28.406,231.207,434.008,202.829,405.646,608.43
bas,stp,2,130518,bas_stp_run2_130518,WHITE,c,mc,white,1200,302058,40939,43,white,white,white,white,1,1392.5,whiteWHITE,261.119,303450.5,1653.619,1,28.406,231.207,434.008,202.829,405.646,608.43
bas,stp,2,130518,bas_stp_run2_130518,YELLOW,i,pc50,green,3600,305658,40939,44,green,green,green,green,1,845.5,greenYELLOW,264.719,306503.5,1110.219,1,28.406,231.207,434.008,202.829,405.646,608.43
bas,stp,2,130518,bas_stp_run2_130518,PURPLE,c,mc,purple,3600,311657,40939,45,purple,purple,purple,purple,1,680,purplePURPLE,270.718,312337,950.718,1,28.406,231.207,434.008,202.829,405.646,608.43
bas,stp,2,130518,bas_stp_run2_130518,WHITE,c,mc,white,1200,317656,40939,46,white,white,white,white,1,611,whiteWHITE,276.717,318267,887.717,1,28.406,231.207,434.008,202.829,405.646,608.43
bas,stp,2,130518,bas_stp_run2_130518,PINK,i,pc50,yellow,3600,321255,40939,47,yellow,yellow,yellow,yellow,1,954.5,yellowPINK,280.316,322209.5,1234.816,1,28.406,231.207,434.008,202.829,405.646,608.43
bas,stp,2,130518,bas_stp_run2_130518,PINK,i,pc50,green,2400,327254,40939,48,green,green,green,green,1,934,greenPINK,286.315,328188,1220.315,1,28.406,231.207,434.008,202.829,405.646,608.43
bas,stp,2,130518,bas_stp_run2_130518,BLUE,c,mc,blue,1200,332053,40939,49,blue,blue,blue,blue,1,1026,blueBLUE,291.114,333079,1317.114,1,28.406,231.207,434.008,202.829,405.646,608.43
bas,stp,2,130518,bas_stp_run2_130518,BLUE,c,mc,blue,1200,335653,40939,50,blue,blue,blue,blue,1,865,blueBLUE,294.714,336518,1159.714,1,28.406,231.207,434.008,202.829,405.646,608.43
bas,stp,2,130518,bas_stp_run2_130518,RED,c,mc,red,3600,339252,40939,51,red,red,red,red,1,705,redRED,298.313,339957,1003.313,1,28.406,231.207,434.008,202.829,405.646,608.43
bas,stp,2,130518,bas_stp_run2_130518,PURPLE,c,mc,purple,3600,345251,40939,52,purple,purple,purple,purple,1,709,purplePURPLE,304.312,345960,1013.312,1,28.406,231.207,434.008,202.829,405.646,608.43
bas,stp,2,130518,bas_stp_run2_130518,GREEN,c,pc50,green,2400,351250,40939,53,green,green,green,green,1,775,greenGREEN,310.311,352025,1085.311,1,28.406,231.207,434.008,202.829,405.646,608.43
bas,stp,2,130518,bas_stp_run2_130518,WHITE,c,mc,white,2400,356050,40939,54,white,white,white,white,1,721,whiteWHITE,315.111,356771,1036.111,1,28.406,231.207,434.008,202.829,405.646,608.43
bas,stp,2,130518,bas_stp_run2_130518,RED,c,mc,red,3600,360849,40939,55,red,red,red,red,1,709,redRED,319.91,361558,1028.91,1,28.406,231.207,434.008,202.829,405.646,608.43
bas,stp,2,130518,bas_stp_run2_130518,WHITE,i,mc,purple,2400,366848,40939,56,purple,purple,purple,purple,1,806,purpleWHITE,325.909,367654,1131.909,1,28.406,231.207,434.008,202.829,405.646,608.43
bas,stp,2,130518,bas_stp_run2_130518,RED,c,mc,red,1200,371647,40939,57,red,red,red,red,1,788.5,redRED,330.708,372435.5,1119.208,1,28.406,231.207,434.008,202.829,405.646,608.43
bas,stp,2,130518,bas_stp_run2_130518,WHITE,c,mc,white,1200,375247,40939,58,white,white,white,white,1,995,whiteWHITE,334.308,376242,1329.308,1,28.406,231.207,434.008,202.829,405.646,608.43
bas,stp,2,130518,bas_stp_run2_130518,PINK,c,pc50,pink,3600,378846,40939,59,pink,pink,pink,pink,1,817.5,pinkPINK,337.907,379663.5,1155.407,1,28.406,231.207,434.008,202.829,405.646,608.43
bas,stp,2,130518,bas_stp_run2_130518,WHITE,c,mc,white,2400,384845,40939,60,white,white,white,white,1,713,whiteWHITE,343.906,385558,1056.906,1,28.406,231.207,434.008,202.829,405.646,608.43
bas,stp,2,130518,bas_stp_run2_130518,BLACK,i,pc50,pink,3600,389661,40939,61,pink,pink,pink,pink,1,1229,pinkBLACK,348.722,390890,1577.722,1,28.406,231.207,434.008,202.829,405.646,608.43
bas,stp,2,130518,bas_stp_run2_130518,RED,i,mc,purple,2400,395660,40939,62,purple,purple,purple,purple,1,836.5,purpleRED,354.721,396496.5,1191.221,1,28.406,231.207,434.008,202.829,405.646,608.43
bas,stp,2,130518,bas_stp_run2_130518,BLUE,c,mc,blue,3600,400459,40939,63,blue,blue,blue,blue,1,845,blueBLUE,359.52,401304,1204.52,1,28.406,231.207,434.008,202.829,405.646,608.43
bas,stp,2,130518,bas_stp_run2_130518,WHITE,i,mc,red,1200,406458,40939,64,red,red,red,red,1,709.5,redWHITE,365.519,407167.5,1075.019,1,28.406,231.207,434.008,202.829,405.646,608.43
bas,stp,2,130518,bas_stp_run2_130518,BLACK,c,pc50,black,1200,410058,40939,65,black,black,black,black,1,953,blackBLACK,369.119,411011,1322.119,1,28.406,231.207,434.008,202.829,405.646,608.43
bas,stp,2,130518,bas_stp_run2_130518,BLUE,i,mc,white,2400,413657,40939,66,white,white,white,white,1,1090,whiteBLUE,372.718,414747,1462.718,1,28.406,231.207,434.008,202.829,405.646,608.43
bas,stp,2,130518,bas_stp_run2_130518,BLACK,i,pc50,yellow,3600,418456,40939,67,yellow,yellow,yellow,yellow,1,1052.5,yellowBLACK,377.517,419508.5,1430.017,1,28.406,231.207,434.008,202.829,405.646,608.43
bas,stp,2,130518,bas_stp_run2_130518,GREEN,i,pc50,black,2400,424455,40939,68,black,black,black,black,1,760.5,blackGREEN,383.516,425215.5,1144.016,1,28.406,231.207,434.008,202.829,405.646,608.43
bas,stp,2,130518,bas_stp_run2_130518,PINK,c,pc50,pink,2400,429255,40939,69,pink,pink,pink,pink,1,786,pinkPINK,388.316,430041,1174.316,1,28.406,231.207,434.008,202.829,405.646,608.43
bas,stp,2,130518,bas_stp_run2_130518,PURPLE,i,mc,blue,3600,434054,40939,70,blue,blue,blue,blue,1,870,bluePURPLE,393.115,434924,1263.115,1,28.406,231.207,434.008,202.829,405.646,608.43
bas,stp,2,130518,bas_stp_run2_130518,YELLOW,c,pc50,yellow,1200,440053,40939,71,yellow,yellow,yellow,yellow,1,959,yellowYELLOW,399.114,441012,1358.114,1,28.406,231.207,434.008,202.829,405.646,608.43
bas,stp,2,130518,bas_stp_run2_130518,RED,c,mc,red,1200,443652,40939,72,red,red,red,red,1,2096,redRED,402.713,445748,2498.713,1,28.406,231.207,434.008,202.829,405.646,608.43
bas,stp,2,130518,bas_stp_run2_130518,YELLOW,i,pc50,green,3600,477247,40939,73,green,green,green,green,1,850,greenYELLOW,436.308,478097,1286.308,1,28.406,231.207,434.008,202.829,405.646,608.43
bas,stp,2,130518,bas_stp_run2_130518,RED,c,mc,red,1200,483246,40939,74,red,red,red,red,1,820,redRED,442.307,484066,1262.307,1,28.406,231.207,434.008,202.829,405.646,608.43
bas,stp,2,130518,bas_stp_run2_130518,YELLOW,c,pc50,yellow,1200,486845,40939,75,yellow,yellow,yellow,yellow,1,878.5,yellowYELLOW,445.906,487723.5,1324.406,1,28.406,231.207,434.008,202.829,405.646,608.43
bas,stp,2,130518,bas_stp_run2_130518,WHITE,c,mc,white,2400,490445,40939,76,white,white,white,white,1,736.5,whiteWHITE,449.506,491181.5,1186.006,1,28.406,231.207,434.008,202.829,405.646,608.43
bas,stp,2,130518,bas_stp_run2_130518,GREEN,i,pc50,black,2400,495261,40939,77,black,black,black,black,1,820,blackGREEN,454.322,496081,1274.322,1,28.406,231.207,434.008,202.829,405.646,608.43
bas,stp,2,130518,bas_stp_run2_130518,PINK,i,pc50,yellow,1200,500060,40939,78,yellow,yellow,yellow,yellow,1,1309,yellowPINK,459.121,501369,1768.121,1,28.406,231.207,434.008,202.829,405.646,608.43
bas,stp,2,130518,bas_stp_run2_130518,PURPLE,c,mc,purple,1200,503659,40939,79,purple,purple,purple,purple,1,727.5,purplePURPLE,462.72,504386.5,1190.22,1,28.406,231.207,434.008,202.829,405.646,608.43
bas,stp,2,130518,bas_stp_run2_130518,WHITE,c,mc,white,2400,507259,40939,80,white,white,white,white,1,816,whiteWHITE,466.32,508075,1282.32,1,28.406,231.207,434.008,202.829,405.646,608.43
bas,stp,2,130518,bas_stp_run2_130518,GREEN,c,pc50,green,3600,512058,40939,81,green,green,green,green,1,981.5,greenGREEN,471.119,513039.5,1452.619,1,28.406,231.207,434.008,202.829,405.646,608.43
bas,stp,2,130518,bas_stp_run2_130518,PINK,i,pc50,green,3600,518057,40939,82,green,green,green,green,1,1006.5,greenPINK,477.118,519063.5,1483.618,1,28.406,231.207,434.008,202.829,405.646,608.43
bas,stp,2,130518,bas_stp_run2_130518,BLUE,c,mc,blue,2400,524056,40939,83,blue,blue,blue,blue,1,1080.5,blueBLUE,483.117,525136.5,1563.617,1,28.406,231.207,434.008,202.829,405.646,608.43
bas,stp,2,130518,bas_stp_run2_130518,WHITE,i,mc,purple,3600,528855,40939,84,purple,purple,purple,purple,1,983.5,purpleWHITE,487.916,529838.5,1471.416,1,28.406,231.207,434.008,202.829,405.646,608.43
bas,stp,2,130518,bas_stp_run2_130518,BLACK,c,pc50,black,2400,534854,40939,85,black,black,black,black,1,1210,blackBLACK,493.915,536064,1703.915,1,28.406,231.207,434.008,202.829,405.646,608.43
bas,stp,2,130518,bas_stp_run2_130518,BLUE,c,mc,blue,1200,539654,40939,86,blue,blue,blue,blue,1,1000.5,blueBLUE,498.715,540654.5,1499.215,1,28.406,231.207,434.008,202.829,405.646,608.43
bas,stp,2,130518,bas_stp_run2_130518,PINK,c,pc50,pink,1200,543253,40939,87,pink,pink,pink,pink,1,947,pinkPINK,502.314,544200,1449.314,1,28.406,231.207,434.008,202.829,405.646,608.43
bas,stp,2,130518,bas_stp_run2_130518,WHITE,i,mc,red,3600,546852,40939,88,red,red,red,red,1,1324,redWHITE,505.913,548176,1829.913,1,28.406,231.207,434.008,202.829,405.646,608.43
bas,stp,2,130518,bas_stp_run2_130518,BLACK,i,pc50,yellow,1200,552852,40939,89,yellow,yellow,yellow,yellow,1,911,yellowBLACK,511.913,553763,1422.913,1,28.406,231.207,434.008,202.829,405.646,608.43
bas,stp,2,130518,bas_stp_run2_130518,WHITE,c,mc,white,2400,556451,40939,90,white,white,white,white,1,804,whiteWHITE,515.512,557255,1319.512,1,28.406,231.207,434.008,202.829,405.646,608.43
bas,stp,2,130518,bas_stp_run2_130518,RED,c,mc,red,2400,561250,40939,91,red,red,red,red,1,874,redRED,520.311,562124,1394.311,1,28.406,231.207,434.008,202.829,405.646,608.43
bas,stp,2,130518,bas_stp_run2_130518,RED,i,mc,purple,3600,566049,40939,92,"white """"""""whi…purple""""""""","white- """"""""whi- purple""""""""",purple,white,0,850,purpleRED,525.11,566899,1375.11,0,28.406,231.207,434.008,202.829,405.646,608.43
bas,stp,2,130518,bas_stp_run2_130518,BLACK,i,pc50,pink,2400,572048,40939,93,pink,pink,pink,pink,1,626.5,pinkBLACK,531.109,572674.5,1157.609,1,28.406,231.207,434.008,202.829,405.646,608.43
bas,stp,2,130518,bas_stp_run2_130518,RED,c,mc,red,1200,576848,40939,94,red,red,red,red,1,742.5,redRED,535.909,577590.5,1278.409,1,28.406,231.207,434.008,202.829,405.646,608.43
bas,stp,2,130518,bas_stp_run2_130518,BLUE,i,mc,white,3600,580447,40939,95,white,white,white,white,1,832.5,whiteBLUE,539.508,581279.5,1372.008,1,28.406,231.207,434.008,202.829,405.646,608.43
bas,stp,2,130518,bas_stp_run2_130518,PURPLE,c,mc,purple,3600,586446,40939,96,purple,purple,purple,purple,1,681.5,purplePURPLE,545.507,587127.5,1227.007,1,28.406,231.207,434.008,202.829,405.646,608.43
bas,stp,2,130518,bas_stp_run2_130518,WHITE,c,mc,white,3600,592445,40939,97,white,white,white,white,1,668,whiteWHITE,551.506,593113,1219.506,1,28.406,231.207,434.008,202.829,405.646,608.43
bas,stp,2,130518,bas_stp_run2_130518,PURPLE,i,mc,blue,1200,598461,40939,98,blue,blue,blue,blue,1,847.5,bluePURPLE,557.522,599308.5,1405.022,1,28.406,231.207,434.008,202.829,405.646,608.43
bas,stp,2,130518,bas_stp_run2_130518,RED,c,mc,red,3600,602060,40939,99,red,red,red,red,1,943,redRED,561.121,603003,1504.121,1,28.406,231.207,434.008,202.829,405.646,608.43
bas,stp,2,130518,bas_stp_run2_130518,WHITE,c,mc,white,2400,608059,40939,100,white,white,white,white,1,919,whiteWHITE,567.12,608978,1486.12,1,28.406,231.207,434.008,202.829,405.646,608.43
bas,stp,2,130518,bas_stp_run2_130518,PINK,c,pc50,pink,1200,612859,40939,101,pink,pink,pink,pink,1,922,pinkPINK,571.92,613781,1493.92,1,28.406,231.207,434.008,202.829,405.646,608.43
bas,stp,2,130518,bas_stp_run2_130518,PURPLE,c,mc,purple,3600,616458,40939,102,purple,purple,purple,purple,1,1009,purplePURPLE,575.519,617467,1584.519,1,28.406,231.207,434.008,202.829,405.646,608.43
bas,stp,2,130518,bas_stp_run2_130518,BLUE,c,mc,blue,3600,622457,40939,103,blue,blue,blue,blue,1,761.5,blueBLUE,581.518,623218.5,1343.018,1,28.406,231.207,434.008,202.829,405.646,608.43
bas,stp,2,130518,bas_stp_run2_130518,BLACK,c,pc50,black,1200,628456,40939,104,black,black,black,black,1,785.5,blackBLACK,587.517,629241.5,1373.017,1,28.406,231.207,434.008,202.829,405.646,608.43
bas,stp,2,130518,bas_stp_run2_130518,RED,i,mc,blue,2400,632056,40939,105,blue,blue,blue,blue,1,2355,blueRED,591.117,634411,2946.117,1,28.406,231.207,434.008,202.829,405.646,608.43
bas,stp,2,130518,bas_stp_run2_130518,BLUE,c,mc,blue,1200,636855,40939,106,blue,blue,blue,blue,1,767.5,blueBLUE,595.916,637622.5,1363.416,1,28.406,231.207,434.008,202.829,405.646,608.43
bas,stp,2,130518,bas_stp_run2_130518,RED,c,mc,red,2400,640454,40939,107,red,red,red,red,1,692.5,redRED,599.515,641146.5,1292.015,1,28.406,231.207,434.008,202.829,405.646,608.43
bas,stp,2,130518,bas_stp_run2_130518,PURPLE,c,mc,purple,2400,645253,40939,108,purple,purple,purple,purple,1,725,purplePURPLE,604.314,645978,1329.314,1,28.406,231.207,434.008,202.829,405.646,608.43
pro,stp,1,130518,pro_stp_run1_130518,WHITE,i,mi,red,3600,102318,71599,1,red,red,red,red,1,859,redWHITE,30.719,103177,889.719,1,28.419,231.22,434.021,202.842,405.626,608.443
pro,stp,1,130518,pro_stp_run1_130518,PURPLE,i,mi,red,1200,108317,71599,2,red,red,red,red,1,866.5,redPURPLE,36.718,109183.5,903.218,1,28.419,231.22,434.021,202.842,405.626,608.443
pro,stp,1,130518,pro_stp_run1_130518,BLACK,i,pc50,green,1200,111916,71599,3,green,green,green,green,1,851.5,greenBLACK,40.317,112767.5,891.817,1,28.419,231.22,434.021,202.842,405.626,608.443
pro,stp,1,130518,pro_stp_run1_130518,RED,i,mi,blue,3600,115516,71599,4,blue,blue,blue,blue,1,683.5,blueRED,43.917,116199.5,727.417,1,28.419,231.22,434.021,202.842,405.626,608.443
pro,stp,1,130518,pro_stp_run1_130518,PURPLE,i,mi,blue,2400,121515,71599,5,blue,blue,blue,blue,1,616,bluePURPLE,49.916,122131,665.916,1,28.419,231.22,434.021,202.842,405.626,608.443
pro,stp,1,130518,pro_stp_run1_130518,YELLOW,i,pc50,black,3600,126314,71599,6,black,black,black,black,1,633.5,blackYELLOW,54.715,126947.5,688.215,1,28.419,231.22,434.021,202.842,405.626,608.443
pro,stp,1,130518,pro_stp_run1_130518,RED,i,mi,purple,3600,132313,71599,7,purple,purple,purple,purple,1,753.5,purpleRED,60.714,133066.5,814.214,1,28.419,231.22,434.021,202.842,405.626,608.443
pro,stp,1,130518,pro_stp_run1_130518,RED,i,mi,blue,2400,138312,71599,8,blue,blue,blue,blue,1,641.5,blueRED,66.713,138953.5,708.213,1,28.419,231.22,434.021,202.842,405.626,608.443
pro,stp,1,130518,pro_stp_run1_130518,WHITE,i,mi,purple,2400,143112,71599,9,purple,purple,purple,purple,1,769.5,purpleWHITE,71.513,143881.5,841.013,1,28.419,231.22,434.021,202.842,405.626,608.443
pro,stp,1,130518,pro_stp_run1_130518,PURPLE,i,mi,white,1200,147911,71599,10,white,white,white,white,1,676.5,whitePURPLE,76.312,148587.5,752.812,1,28.419,231.22,434.021,202.842,405.626,608.443
pro,stp,1,130518,pro_stp_run1_130518,WHITE,c,mi,white,2400,151527,71599,11,white,white,white,white,1,568.5,whiteWHITE,79.928,152095.5,648.428,1,28.419,231.22,434.021,202.842,405.626,608.443
pro,stp,1,130518,pro_stp_run1_130518,BLUE,i,mi,purple,1200,156326,71599,12,purple,purple,purple,purple,1,719.5,purpleBLUE,84.727,157045.5,804.227,1,28.419,231.22,434.021,202.842,405.626,608.443
pro,stp,1,130518,pro_stp_run1_130518,BLUE,i,mi,white,2400,159926,71599,13,white,white,white,white,1,908,whiteBLUE,88.327,160834,996.327,1,28.419,231.22,434.021,202.842,405.626,608.443
pro,stp,1,130518,pro_stp_run1_130518,RED,i,mi,white,3600,164725,71599,14,white,white,white,white,1,663,whiteRED,93.126,165388,756.126,1,28.419,231.22,434.021,202.842,405.626,608.443
pro,stp,1,130518,pro_stp_run1_130518,WHITE,i,mi,purple,2400,170724,71599,15,purple,purple,purple,purple,1,763.5,purpleWHITE,99.125,171487.5,862.625,1,28.419,231.22,434.021,202.842,405.626,608.443
pro,stp,1,130518,pro_stp_run1_130518,RED,i,mi,purple,2400,175523,71599,16,purple,purple,purple,purple,1,538.5,purpleRED,103.924,176061.5,642.424,1,28.419,231.22,434.021,202.842,405.626,608.443
pro,stp,1,130518,pro_stp_run1_130518,BLUE,i,mi,white,3600,180322,71599,17,white,white,white,white,1,672.5,whiteBLUE,108.723,180994.5,781.223,1,28.419,231.22,434.021,202.842,405.626,608.443
pro,stp,1,130518,pro_stp_run1_130518,WHITE,i,mi,red,3600,186321,71599,18,red,red,red,red,1,764.5,redWHITE,114.722,187085.5,879.222,1,28.419,231.22,434.021,202.842,405.626,608.443
pro,stp,1,130518,pro_stp_run1_130518,YELLOW,c,pc50,yellow,1200,192320,71599,19,yellow,yellow,yellow,yellow,1,665,yellowYELLOW,120.721,192985,785.721,1,28.419,231.22,434.021,202.842,405.626,608.443
pro,stp,1,130518,pro_stp_run1_130518,BLUE,c,mi,blue,1200,195920,71599,20,blue,blue,blue,blue,1,614,blueBLUE,124.321,196534,738.321,1,28.419,231.22,434.021,202.842,405.626,608.443
pro,stp,1,130518,pro_stp_run1_130518,BLUE,c,mi,blue,1200,199519,71599,21,blue,blue,blue,blue,1,583,blueBLUE,127.92,200102,710.92,1,28.419,231.22,434.021,202.842,405.626,608.443
pro,stp,1,130518,pro_stp_run1_130518,YELLOW,i,pc50,pink,2400,203119,71599,22,pink,pink,pink,pink,1,684.5,pinkYELLOW,131.52,203803.5,816.02,1,28.419,231.22,434.021,202.842,405.626,608.443
pro,stp,1,130518,pro_stp_run1_130518,GREEN,i,pc50,pink,3600,207918,71599,23,pink,pink,pink,pink,1,643,pinkGREEN,136.319,208561,779.319,1,28.419,231.22,434.021,202.842,405.626,608.443
pro,stp,1,130518,pro_stp_run1_130518,PURPLE,i,mi,blue,1200,213917,71599,24,blue,blue,blue,blue,1,767.5,bluePURPLE,142.318,214684.5,909.818,1,28.419,231.22,434.021,202.842,405.626,608.443
pro,stp,1,130518,pro_stp_run1_130518,BLUE,i,mi,red,1200,217516,71599,25,red,red,red,red,1,1335.5,redBLUE,145.917,218851.5,1481.417,1,28.419,231.22,434.021,202.842,405.626,608.443
pro,stp,1,130518,pro_stp_run1_130518,PINK,c,pc50,pink,2400,221116,71599,26,pink,pink,pink,pink,1,652,pinkPINK,149.517,221768,801.517,1,28.419,231.22,434.021,202.842,405.626,608.443
pro,stp,1,130518,pro_stp_run1_130518,PURPLE,c,mi,purple,1200,225915,71599,27,purple,purple,purple,purple,1,642.5,purplePURPLE,154.316,226557.5,796.816,1,28.419,231.22,434.021,202.842,405.626,608.443
pro,stp,1,130518,pro_stp_run1_130518,GREEN,c,pc50,green,3600,229514,71599,28,green,green,green,green,1,664.5,greenGREEN,157.915,230178.5,822.415,1,28.419,231.22,434.021,202.842,405.626,608.443
pro,stp,1,130518,pro_stp_run1_130518,PINK,i,pc50,black,1200,235513,71599,29,black,black,black,black,1,687,blackPINK,163.914,236200,850.914,1,28.419,231.22,434.021,202.842,405.626,608.443
pro,stp,1,130518,pro_stp_run1_130518,PURPLE,c,mi,purple,2400,239113,71599,30,purple,purple,purple,purple,1,698,purplePURPLE,167.514,239811,865.514,1,28.419,231.22,434.021,202.842,405.626,608.443
pro,stp,1,130518,pro_stp_run1_130518,BLACK,c,pc50,black,1200,243912,71599,31,black,black,black,black,1,669,blackBLACK,172.313,244581,841.313,1,28.419,231.22,434.021,202.842,405.626,608.443
pro,stp,1,130518,pro_stp_run1_130518,YELLOW,c,pc50,yellow,2400,247512,71599,32,yellow,yellow,yellow,yellow,1,641.5,yellowYELLOW,175.913,248153.5,817.413,1,28.419,231.22,434.021,202.842,405.626,608.443
pro,stp,1,130518,pro_stp_run1_130518,GREEN,i,pc50,yellow,2400,252311,71599,33,yellow,yellow,yellow,yellow,1,811,yellowGREEN,180.712,253122,991.712,1,28.419,231.22,434.021,202.842,405.626,608.443
pro,stp,1,130518,pro_stp_run1_130518,WHITE,i,mi,blue,3600,257127,71599,34,blue,blue,blue,blue,1,892,blueWHITE,185.528,258019,1077.528,1,28.419,231.22,434.021,202.842,405.626,608.443
pro,stp,1,130518,pro_stp_run1_130518,GREEN,c,pc50,green,3600,263126,71599,35,green,green,green,green,1,678.5,greenGREEN,191.527,263804.5,870.027,1,28.419,231.22,434.021,202.842,405.626,608.443
pro,stp,1,130518,pro_stp_run1_130518,RED,c,mi,red,3600,269125,71599,36,red,red,red,red,1,634,redRED,197.526,269759,831.526,1,28.419,231.22,434.021,202.842,405.626,608.443
pro,stp,1,130518,pro_stp_run1_130518,WHITE,i,mi,purple,3600,305119,71599,37,purple,purple,purple,purple,1,807.5,purpleWHITE,233.52,305926.5,1041.02,1,28.419,231.22,434.021,202.842,405.626,608.443
pro,stp,1,130518,pro_stp_run1_130518,YELLOW,i,pc50,black,3600,311118,71599,38,black,black,black,black,1,673,blackYELLOW,239.519,311791,912.519,1,28.419,231.22,434.021,202.842,405.626,608.443
pro,stp,1,130518,pro_stp_run1_130518,BLUE,i,mi,white,3600,317117,71599,39,white,white,white,white,1,701.5,whiteBLUE,245.518,317818.5,947.018,1,28.419,231.22,434.021,202.842,405.626,608.443
pro,stp,1,130518,pro_stp_run1_130518,PINK,c,pc50,pink,2400,323116,71599,40,pink,pink,pink,pink,1,764,pinkPINK,251.517,323880,1015.517,1,28.419,231.22,434.021,202.842,405.626,608.443
pro,stp,1,130518,pro_stp_run1_130518,WHITE,i,mi,red,1200,327915,71599,41,red,red,red,red,1,878.5,redWHITE,256.316,328793.5,1134.816,1,28.419,231.22,434.021,202.842,405.626,608.443
pro,stp,1,130518,pro_stp_run1_130518,WHITE,i,mi,blue,2400,331515,71599,42,blue,blue,blue,blue,1,820,blueWHITE,259.916,332335,1079.916,1,28.419,231.22,434.021,202.842,405.626,608.443
pro,stp,1,130518,pro_stp_run1_130518,WHITE,i,mi,purple,1200,336314,71599,43,purple,purple,purple,purple,1,821,purpleWHITE,264.715,337135,1085.715,1,28.419,231.22,434.021,202.842,405.626,608.443
pro,stp,1,130518,pro_stp_run1_130518,RED,i,mi,blue,3600,339913,71599,44,blue,blue,blue,blue,1,755.5,blueRED,268.314,340668.5,1023.814,1,28.419,231.22,434.021,202.842,405.626,608.443
pro,stp,1,130518,pro_stp_run1_130518,PURPLE,i,mi,blue,2400,345912,71599,45,blue,blue,blue,blue,1,799,bluePURPLE,274.313,346711,1073.313,1,28.419,231.22,434.021,202.842,405.626,608.443
pro,stp,1,130518,pro_stp_run1_130518,YELLOW,i,pc50,pink,1200,350712,71599,46,pink,pink,pink,pink,1,724.5,pinkYELLOW,279.113,351436.5,1003.613,1,28.419,231.22,434.021,202.842,405.626,608.443
pro,stp,1,130518,pro_stp_run1_130518,PINK,i,pc50,black,2400,354311,71599,47,black,black,black,black,1,814.5,blackPINK,282.712,355125.5,1097.212,1,28.419,231.22,434.021,202.842,405.626,608.443
pro,stp,1,130518,pro_stp_run1_130518,GREEN,i,pc50,pink,1200,359127,71599,48,pink,pink,pink,pink,1,757,pinkGREEN,287.528,359884,1044.528,1,28.419,231.22,434.021,202.842,405.626,608.443
pro,stp,1,130518,pro_stp_run1_130518,PURPLE,i,mi,blue,2400,362726,71599,49,blue,blue,blue,blue,1,631,bluePURPLE,291.127,363357,922.127,1,28.419,231.22,434.021,202.842,405.626,608.443
pro,stp,1,130518,pro_stp_run1_130518,PURPLE,c,mi,purple,1200,367526,71599,50,purple,purple,purple,purple,1,747.5,purplePURPLE,295.927,368273.5,1043.427,1,28.419,231.22,434.021,202.842,405.626,608.443
pro,stp,1,130518,pro_stp_run1_130518,RED,i,mi,purple,2400,371125,71599,51,purple,purple,purple,purple,1,742.5,purpleRED,299.526,371867.5,1042.026,1,28.419,231.22,434.021,202.842,405.626,608.443
pro,stp,1,130518,pro_stp_run1_130518,RED,i,mi,blue,1200,375924,71599,52,blue,blue,blue,blue,1,785.5,blueRED,304.325,376709.5,1089.825,1,28.419,231.22,434.021,202.842,405.626,608.443
pro,stp,1,130518,pro_stp_run1_130518,GREEN,c,pc50,green,3600,379524,71599,53,green,green,green,green,1,705.5,greenGREEN,307.925,380229.5,1013.425,1,28.419,231.22,434.021,202.842,405.626,608.443
pro,stp,1,130518,pro_stp_run1_130518,YELLOW,c,pc50,yellow,3600,385523,71599,54,yellow,yellow,yellow,yellow,1,623,yellowYELLOW,313.924,386146,936.924,1,28.419,231.22,434.021,202.842,405.626,608.443
pro,stp,1,130518,pro_stp_run1_130518,BLUE,c,mi,blue,3600,391522,71599,55,blue,blue,blue,blue,1,794,blueBLUE,319.923,392316,1113.923,1,28.419,231.22,434.021,202.842,405.626,608.443
pro,stp,1,130518,pro_stp_run1_130518,BLUE,i,mi,purple,2400,397521,71599,56,purple,purple,purple,purple,1,716.5,purpleBLUE,325.922,398237.5,1042.422,1,28.419,231.22,434.021,202.842,405.626,608.443
pro,stp,1,130518,pro_stp_run1_130518,BLUE,c,mi,blue,3600,402320,71599,57,blue,blue,blue,blue,1,832,blueBLUE,330.721,403152,1162.721,1,28.419,231.22,434.021,202.842,405.626,608.443
pro,stp,1,130518,pro_stp_run1_130518,PURPLE,c,mi,purple,1200,408319,71599,58,purple,purple,purple,purple,1,700,purplePURPLE,336.72,409019,1036.72,1,28.419,231.22,434.021,202.842,405.626,608.443
pro,stp,1,130518,pro_stp_run1_130518,RED,i,mi,purple,2400,411919,71599,59,purple,purple,purple,purple,1,699.5,purpleRED,340.32,412618.5,1039.82,1,28.419,231.22,434.021,202.842,405.626,608.443
pro,stp,1,130518,pro_stp_run1_130518,GREEN,c,pc50,green,1200,416718,71599,60,green,green,green,green,1,739,greenGREEN,345.119,417457,1084.119,1,28.419,231.22,434.021,202.842,405.626,608.443
pro,stp,1,130518,pro_stp_run1_130518,RED,c,mi,red,2400,420317,71599,61,red,red,red,red,1,718,redRED,348.718,421035,1066.718,1,28.419,231.22,434.021,202.842,405.626,608.443
pro,stp,1,130518,pro_stp_run1_130518,BLACK,c,pc50,black,3600,425117,71599,62,black,black,black,black,1,679.5,blackBLACK,353.518,425796.5,1033.018,1,28.419,231.22,434.021,202.842,405.626,608.443
pro,stp,1,130518,pro_stp_run1_130518,BLACK,i,pc50,green,3600,431116,71599,63,green,green,green,green,1,798.5,greenBLACK,359.517,431914.5,1158.017,1,28.419,231.22,434.021,202.842,405.626,608.443
pro,stp,1,130518,pro_stp_run1_130518,PURPLE,i,mi,red,1200,437115,71599,64,red,red,red,red,1,694,redPURPLE,365.516,437809,1059.516,1,28.419,231.22,434.021,202.842,405.626,608.443
pro,stp,1,130518,pro_stp_run1_130518,WHITE,i,mi,red,1200,440714,71599,65,red,red,red,red,1,659,redWHITE,369.115,441373,1028.115,1,28.419,231.22,434.021,202.842,405.626,608.443
pro,stp,1,130518,pro_stp_run1_130518,BLUE,i,mi,white,1200,444313,71599,66,white,white,white,white,1,699.5,whiteBLUE,372.714,445012.5,1072.214,1,28.419,231.22,434.021,202.842,405.626,608.443
pro,stp,1,130518,pro_stp_run1_130518,GREEN,i,pc50,yellow,3600,447913,71599,67,yellow,yellow,yellow,yellow,1,983,yellowGREEN,376.314,448896,1359.314,1,28.419,231.22,434.021,202.842,405.626,608.443
pro,stp,1,130518,pro_stp_run1_130518,RED,i,mi,white,2400,453912,71599,68,white,white,white,white,1,688,whiteRED,382.313,454600,1070.313,1,28.419,231.22,434.021,202.842,405.626,608.443
pro,stp,1,130518,pro_stp_run1_130518,YELLOW,c,pc50,yellow,3600,458711,71599,69,yellow,yellow,yellow,yellow,1,665,yellowYELLOW,387.112,459376,1052.112,1,28.419,231.22,434.021,202.842,405.626,608.443
pro,stp,1,130518,pro_stp_run1_130518,WHITE,c,mi,white,1200,464727,71599,70,white,white,white,white,1,680,whiteWHITE,393.128,465407,1073.128,1,28.419,231.22,434.021,202.842,405.626,608.443
pro,stp,1,130518,pro_stp_run1_130518,PURPLE,i,mi,white,2400,468326,71599,71,white,white,white,white,1,754,whitePURPLE,396.727,469080,1150.727,1,28.419,231.22,434.021,202.842,405.626,608.443
pro,stp,1,130518,pro_stp_run1_130518,BLUE,i,mi,red,2400,473126,71599,72,red,red,red,red,1,693.5,redBLUE,401.527,473819.5,1095.027,1,28.419,231.22,434.021,202.842,405.626,608.443
pro,stp,1,130518,pro_stp_run1_130518,PURPLE,i,mi,red,2400,507920,71599,73,red,red,red,red,1,724,redPURPLE,436.321,508644,1160.321,1,28.419,231.22,434.021,202.842,405.626,608.443
pro,stp,1,130518,pro_stp_run1_130518,BLUE,c,mi,blue,3600,512719,71599,74,blue,blue,blue,blue,1,751,blueBLUE,441.12,513470,1192.12,1,28.419,231.22,434.021,202.842,405.626,608.443
pro,stp,1,130518,pro_stp_run1_130518,GREEN,c,pc50,green,3600,518718,71599,75,green,green,green,green,1,748.5,greenGREEN,447.119,519466.5,1195.619,1,28.419,231.22,434.021,202.842,405.626,608.443
pro,stp,1,130518,pro_stp_run1_130518,RED,i,mi,white,1200,524717,71599,76,white,white,white,white,1,688.5,whiteRED,453.118,525405.5,1141.618,1,28.419,231.22,434.021,202.842,405.626,608.443
pro,stp,1,130518,pro_stp_run1_130518,RED,i,mi,blue,1200,528317,71599,77,blue,blue,blue,blue,1,766,blueRED,456.718,529083,1222.718,1,28.419,231.22,434.021,202.842,405.626,608.443
pro,stp,1,130518,pro_stp_run1_130518,WHITE,i,mi,red,2400,531916,71599,78,red,red,red,red,1,811,redWHITE,460.317,532727,1271.317,1,28.419,231.22,434.021,202.842,405.626,608.443
pro,stp,1,130518,pro_stp_run1_130518,PINK,i,pc50,black,2400,536715,71599,79,black,black,black,black,1,680,blackPINK,465.116,537395,1145.116,1,28.419,231.22,434.021,202.842,405.626,608.443
pro,stp,1,130518,pro_stp_run1_130518,BLUE,c,mi,blue,1200,541515,71599,80,blue,blue,blue,blue,1,787,blueBLUE,469.916,542302,1256.916,1,28.419,231.22,434.021,202.842,405.626,608.443
pro,stp,1,130518,pro_stp_run1_130518,PURPLE,i,mi,white,2400,545114,71599,81,white,white,white,white,1,756,whitePURPLE,473.515,545870,1229.515,1,28.419,231.22,434.021,202.842,405.626,608.443
pro,stp,1,130518,pro_stp_run1_130518,BLUE,i,mi,white,3600,549913,71599,82,white,white,white,white,1,561.5,whiteBLUE,478.314,550474.5,1039.814,1,28.419,231.22,434.021,202.842,405.626,608.443
pro,stp,1,130518,pro_stp_run1_130518,WHITE,i,mi,red,1200,555912,71599,83,red,red,red,red,1,691.5,redWHITE,484.313,556603.5,1175.813,1,28.419,231.22,434.021,202.842,405.626,608.443
pro,stp,1,130518,pro_stp_run1_130518,BLUE,i,mi,red,3600,559512,71599,84,red,red,red,red,1,699,redBLUE,487.913,560211,1186.913,1,28.419,231.22,434.021,202.842,405.626,608.443
pro,stp,1,130518,pro_stp_run1_130518,RED,c,mi,red,1200,565511,71599,85,red,red,red,red,1,719,redRED,493.912,566230,1212.912,1,28.419,231.22,434.021,202.842,405.626,608.443
pro,stp,1,130518,pro_stp_run1_130518,PURPLE,i,mi,blue,2400,569127,71599,86,blue,blue,blue,blue,1,737.5,bluePURPLE,497.528,569864.5,1235.028,1,28.419,231.22,434.021,202.842,405.626,608.443
pro,stp,1,130518,pro_stp_run1_130518,BLACK,c,pc50,black,2400,573926,71599,87,black,black,black,black,1,638.5,blackBLACK,502.327,574564.5,1140.827,1,28.419,231.22,434.021,202.842,405.626,608.443
pro,stp,1,130518,pro_stp_run1_130518,GREEN,i,pc50,yellow,1200,578725,71599,88,yellow,yellow,yellow,yellow,1,790.5,yellowGREEN,507.126,579515.5,1297.626,1,28.419,231.22,434.021,202.842,405.626,608.443
pro,stp,1,130518,pro_stp_run1_130518,PURPLE,c,mi,purple,3600,582325,71599,89,purple,purple,purple,purple,1,745.5,purplePURPLE,510.726,583070.5,1256.226,1,28.419,231.22,434.021,202.842,405.626,608.443
pro,stp,1,130518,pro_stp_run1_130518,PURPLE,i,mi,blue,3600,588324,71599,90,blue,blue,blue,blue,1,738,bluePURPLE,516.725,589062,1254.725,1,28.419,231.22,434.021,202.842,405.626,608.443
pro,stp,1,130518,pro_stp_run1_130518,RED,i,mi,blue,2400,594323,71599,91,blue,blue,blue,blue,1,768,blueRED,522.724,595091,1290.724,1,28.419,231.22,434.021,202.842,405.626,608.443
pro,stp,1,130518,pro_stp_run1_130518,PINK,c,pc50,pink,3600,599122,71599,92,pink,pink,pink,pink,1,1207,pinkPINK,527.523,600329,1734.523,1,28.419,231.22,434.021,202.842,405.626,608.443
pro,stp,1,130518,pro_stp_run1_130518,YELLOW,i,pc50,pink,2400,605121,71599,93,pink,pink,pink,pink,1,659,pinkYELLOW,533.522,605780,1192.522,1,28.419,231.22,434.021,202.842,405.626,608.443
pro,stp,1,130518,pro_stp_run1_130518,PURPLE,c,mi,purple,3600,609920,71599,94,purple,purple,purple,purple,1,669.5,purplePURPLE,538.321,610589.5,1207.821,1,28.419,231.22,434.021,202.842,405.626,608.443
pro,stp,1,130518,pro_stp_run1_130518,RED,i,mi,purple,1200,615919,71599,95,purple,purple,purple,purple,1,811,purpleRED,544.32,616730,1355.32,1,28.419,231.22,434.021,202.842,405.626,608.443
pro,stp,1,130518,pro_stp_run1_130518,BLUE,i,mi,purple,1200,619519,71599,96,purple,purple,purple,purple,1,694,purpleBLUE,547.92,620213,1241.92,1,28.419,231.22,434.021,202.842,405.626,608.443
pro,stp,1,130518,pro_stp_run1_130518,WHITE,i,mi,purple,3600,623118,71599,97,purple,purple,purple,purple,1,671,purpleWHITE,551.519,623789,1222.519,1,28.419,231.22,434.021,202.842,405.626,608.443
pro,stp,1,130518,pro_stp_run1_130518,BLACK,i,pc50,green,3600,629117,71599,98,green,green,green,green,1,754.5,greenBLACK,557.518,629871.5,1312.018,1,28.419,231.22,434.021,202.842,405.626,608.443
pro,stp,1,130518,pro_stp_run1_130518,BLUE,i,mi,white,3600,635116,71599,99,white,white,white,white,1,779.5,whiteBLUE,563.517,635895.5,1343.017,1,28.419,231.22,434.021,202.842,405.626,608.443
pro,stp,1,130518,pro_stp_run1_130518,YELLOW,i,pc50,black,2400,641115,71599,100,black,black,black,black,1,780.5,blackYELLOW,569.516,641895.5,1350.016,1,28.419,231.22,434.021,202.842,405.626,608.443
pro,stp,1,130518,pro_stp_run1_130518,WHITE,i,mi,purple,1200,645915,71599,101,purple,purple,purple,purple,1,771,purpleWHITE,574.316,646686,1345.316,1,28.419,231.22,434.021,202.842,405.626,608.443
pro,stp,1,130518,pro_stp_run1_130518,RED,i,mi,purple,2400,649514,71599,102,purple,purple,purple,purple,1,631,purpleRED,577.915,650145,1208.915,1,28.419,231.22,434.021,202.842,405.626,608.443
pro,stp,1,130518,pro_stp_run1_130518,GREEN,c,pc50,green,1200,654313,71599,103,green,green,green,green,1,632.5,greenGREEN,582.714,654945.5,1215.214,1,28.419,231.22,434.021,202.842,405.626,608.443
pro,stp,1,130518,pro_stp_run1_130518,WHITE,c,mi,white,2400,657913,71599,104,white,white,white,white,1,689.5,whiteWHITE,586.314,658602.5,1275.814,1,28.419,231.22,434.021,202.842,405.626,608.443
pro,stp,1,130518,pro_stp_run1_130518,GREEN,i,pc50,pink,3600,662712,71599,105,pink,pink,pink,pink,1,671.5,pinkGREEN,591.113,663383.5,1262.613,1,28.419,231.22,434.021,202.842,405.626,608.443
pro,stp,1,130518,pro_stp_run1_130518,YELLOW,c,pc50,yellow,1200,668711,71599,106,yellow,yellow,yellow,yellow,1,1119.5,yellowYELLOW,597.112,669830.5,1716.612,1,28.419,231.22,434.021,202.842,405.626,608.443
pro,stp,1,130518,pro_stp_run1_130518,YELLOW,c,pc50,yellow,2400,672327,71599,107,yellow,yellow,yellow,yellow,1,747,yellowYELLOW,600.728,673074,1347.728,1,28.419,231.22,434.021,202.842,405.626,608.443
pro,stp,1,130518,pro_stp_run1_130518,WHITE,i,mi,blue,1200,677126,71599,108,blue,blue,blue,blue,1,695,blueWHITE,605.527,677821,1300.527,1,28.419,231.22,434.021,202.842,405.626,608.443
pro,stp,2,130518,pro_stp_run2_130518,PURPLE,i,mi,white,1200,76825,46114,1,white,white,white,white,1,628,whitePURPLE,30.711,77453,658.711,1,28.428,231.212,434.013,202.833,405.634,608.435
pro,stp,2,130518,pro_stp_run2_130518,GREEN,i,pc50,black,1200,80441,46114,2,black,black,black,black,1,819.5,blackGREEN,34.327,81260.5,853.827,1,28.428,231.212,434.013,202.833,405.634,608.435
pro,stp,2,130518,pro_stp_run2_130518,BLACK,c,pc50,black,2400,84040,46114,3,black,black,black,black,1,588,blackBLACK,37.926,84628,625.926,1,28.428,231.212,434.013,202.833,405.634,608.435
pro,stp,2,130518,pro_stp_run2_130518,BLACK,i,pc50,pink,3600,88840,46114,4,pink,pink,pink,pink,1,734.5,pinkBLACK,42.726,89574.5,777.226,1,28.428,231.212,434.013,202.833,405.634,608.435
pro,stp,2,130518,pro_stp_run2_130518,PURPLE,i,mi,blue,3600,94839,46114,5,blue,blue,blue,blue,1,695.5,bluePURPLE,48.725,95534.5,744.225,1,28.428,231.212,434.013,202.833,405.634,608.435
pro,stp,2,130518,pro_stp_run2_130518,BLUE,i,mi,red,2400,100838,46114,6,red,red,red,red,1,942,redBLUE,54.724,101780,996.724,1,28.428,231.212,434.013,202.833,405.634,608.435
pro,stp,2,130518,pro_stp_run2_130518,BLACK,c,pc50,black,1200,105637,46114,7,black,black,black,black,1,762.5,blackBLACK,59.523,106399.5,822.023,1,28.428,231.212,434.013,202.833,405.634,608.435
pro,stp,2,130518,pro_stp_run2_130518,BLACK,i,pc50,yellow,2400,109236,46114,8,yellow,yellow,yellow,yellow,1,728.5,yellowBLACK,63.122,109964.5,791.622,1,28.428,231.212,434.013,202.833,405.634,608.435
pro,stp,2,130518,pro_stp_run2_130518,BLUE,i,mi,purple,1200,114036,46114,9,purple,purple,purple,purple,1,658.5,purpleBLUE,67.922,114694.5,726.422,1,28.428,231.212,434.013,202.833,405.634,608.435
pro,stp,2,130518,pro_stp_run2_130518,BLUE,i,mi,white,2400,117635,46114,10,white,white,white,white,1,728.5,whiteBLUE,71.521,118363.5,800.021,1,28.428,231.212,434.013,202.833,405.634,608.435
pro,stp,2,130518,pro_stp_run2_130518,WHITE,i,mi,red,3600,122434,46114,11,red,red,red,red,1,666,redWHITE,76.32,123100,742.32,1,28.428,231.212,434.013,202.833,405.634,608.435
pro,stp,2,130518,pro_stp_run2_130518,YELLOW,c,pc50,yellow,3600,128433,46114,12,yellow,yellow,yellow,yellow,1,689.5,yellowYELLOW,82.319,129122.5,771.819,1,28.428,231.212,434.013,202.833,405.634,608.435
pro,stp,2,130518,pro_stp_run2_130518,RED,c,mi,red,3600,134432,46114,13,red,red,red,red,1,700,redRED,88.318,135132,788.318,1,28.428,231.212,434.013,202.833,405.634,608.435
pro,stp,2,130518,pro_stp_run2_130518,WHITE,c,mi,white,1200,140431,46114,14,white,white,white,white,1,790.5,whiteWHITE,94.317,141221.5,884.817,1,28.428,231.212,434.013,202.833,405.634,608.435
pro,stp,2,130518,pro_stp_run2_130518,RED,i,mi,white,3600,144031,46114,15,white,white,white,white,1,1122.5,whiteRED,97.917,145153.5,1220.417,1,28.428,231.212,434.013,202.833,405.634,608.435
pro,stp,2,130518,pro_stp_run2_130518,WHITE,i,mi,purple,2400,150030,46114,16,purple,purple,purple,purple,1,622.5,purpleWHITE,103.916,150652.5,726.416,1,28.428,231.212,434.013,202.833,405.634,608.435
pro,stp,2,130518,pro_stp_run2_130518,RED,i,mi,white,2400,154829,46114,17,white,white,white,white,1,723.5,whiteRED,108.715,155552.5,832.215,1,28.428,231.212,434.013,202.833,405.634,608.435
pro,stp,2,130518,pro_stp_run2_130518,BLUE,i,mi,purple,1200,159628,46114,18,purple,purple,purple,purple,1,774.5,purpleBLUE,113.514,160402.5,888.014,1,28.428,231.212,434.013,202.833,405.634,608.435
pro,stp,2,130518,pro_stp_run2_130518,WHITE,i,mi,blue,3600,163228,46114,19,blue,blue,blue,blue,1,774,blueWHITE,117.114,164002,891.114,1,28.428,231.212,434.013,202.833,405.634,608.435
pro,stp,2,130518,pro_stp_run2_130518,RED,i,mi,blue,3600,169227,46114,20,blue,blue,blue,blue,1,2544,blueRED,123.113,171771,2667.113,1,28.428,231.212,434.013,202.833,405.634,608.435
pro,stp,2,130518,pro_stp_run2_130518,GREEN,c,pc50,green,1200,175226,46114,21,green,green,green,green,1,617,greenGREEN,129.112,175843,746.112,1,28.428,231.212,434.013,202.833,405.634,608.435
pro,stp,2,130518,pro_stp_run2_130518,BLUE,c,mi,blue,1200,178825,46114,22,blue,blue,blue,blue,1,563.5,blueBLUE,132.711,179388.5,696.211,1,28.428,231.212,434.013,202.833,405.634,608.435
pro,stp,2,130518,pro_stp_run2_130518,RED,c,mi,red,2400,182425,46114,23,red,red,red,red,1,594.5,redRED,136.311,183019.5,730.811,1,28.428,231.212,434.013,202.833,405.634,608.435
pro,stp,2,130518,pro_stp_run2_130518,WHITE,i,mi,blue,2400,187241,46114,24,blue,blue,blue,blue,1,717.5,blueWHITE,141.127,187958.5,858.627,1,28.428,231.212,434.013,202.833,405.634,608.435
pro,stp,2,130518,pro_stp_run2_130518,PINK,i,pc50,green,2400,192040,46114,25,green,green,green,green,1,715,greenPINK,145.926,192755,860.926,1,28.428,231.212,434.013,202.833,405.634,608.435
pro,stp,2,130518,pro_stp_run2_130518,PURPLE,c,mi,purple,1200,196839,46114,26,purple,purple,purple,purple,1,648,purplePURPLE,150.725,197487,798.725,1,28.428,231.212,434.013,202.833,405.634,608.435
pro,stp,2,130518,pro_stp_run2_130518,PINK,c,pc50,pink,2400,200439,46114,27,pink,pink,pink,pink,1,564,pinkPINK,154.325,201003,718.325,1,28.428,231.212,434.013,202.833,405.634,608.435
pro,stp,2,130518,pro_stp_run2_130518,PINK,c,pc50,pink,3600,205238,46114,28,pink,pink,pink,pink,1,542,pinkPINK,159.124,205780,701.124,1,28.428,231.212,434.013,202.833,405.634,608.435
pro,stp,2,130518,pro_stp_run2_130518,PURPLE,i,mi,red,1200,211237,46114,29,red,red,red,red,1,641.5,redPURPLE,165.123,211878.5,806.623,1,28.428,231.212,434.013,202.833,405.634,608.435
pro,stp,2,130518,pro_stp_run2_130518,WHITE,c,mi,white,2400,214836,46114,30,white,white,white,white,1,800.5,whiteWHITE,168.722,215636.5,969.222,1,28.428,231.212,434.013,202.833,405.634,608.435
pro,stp,2,130518,pro_stp_run2_130518,PINK,i,pc50,yellow,2400,219636,46114,31,yellow,yellow,yellow,yellow,1,734,yellowPINK,173.522,220370,907.522,1,28.428,231.212,434.013,202.833,405.634,608.435
pro,stp,2,130518,pro_stp_run2_130518,YELLOW,i,pc50,green,1200,224435,46114,32,green -distortion - cough then green,"cough before """"""""green""""""""",green,green,1,807.5,greenYELLOW,178.321,225242.5,985.821,1,28.428,231.212,434.013,202.833,405.634,608.435
pro,stp,2,130518,pro_stp_run2_130518,BLUE,i,mi,red,1200,228034,46114,33,"""""""""bl.. Red""""""""","blue- """"""""blu..red""""""""",red,blue,0,1236,redBLUE,181.92,229270,1417.92,0,28.428,231.212,434.013,202.833,405.634,608.435
pro,stp,2,130518,pro_stp_run2_130518,RED,i,mi,purple,3600,231634,46114,34,purple,purple,purple,purple,1,1081.5,purpleRED,185.52,232715.5,1267.02,1,28.428,231.212,434.013,202.833,405.634,608.435
pro,stp,2,130518,pro_stp_run2_130518,PURPLE,i,mi,white,3600,237633,46114,35,white,white,white,white,1,736.5,whitePURPLE,191.519,238369.5,928.019,1,28.428,231.212,434.013,202.833,405.634,608.435
pro,stp,2,130518,pro_stp_run2_130518,PURPLE,i,mi,red,3600,243632,46114,36,red,red,red,red,1,636,redPURPLE,197.518,244268,833.518,1,28.428,231.212,434.013,202.833,405.634,608.435
pro,stp,2,130518,pro_stp_run2_130518,RED,i,mi,purple,2400,279626,46114,37,purple,purple,purple,purple,1,681,purpleRED,233.512,280307,914.512,1,28.428,231.212,434.013,202.833,405.634,608.435
pro,stp,2,130518,pro_stp_run2_130518,PURPLE,i,mi,red,1200,284425,46114,38,red,red,red,red,1,743,redPURPLE,238.311,285168,981.311,1,28.428,231.212,434.013,202.833,405.634,608.435
pro,stp,2,130518,pro_stp_run2_130518,PINK,c,pc50,pink,3600,288025,46114,39,pink,pink,pink,pink,1,678.5,pinkPINK,241.911,288703.5,920.411,1,28.428,231.212,434.013,202.833,405.634,608.435
pro,stp,2,130518,pro_stp_run2_130518,PURPLE,c,mi,purple,3600,294040,46114,40,purple,purple,purple,purple,1,710.5,purplePURPLE,247.926,294750.5,958.426,1,28.428,231.212,434.013,202.833,405.634,608.435
pro,stp,2,130518,pro_stp_run2_130518,PURPLE,i,mi,blue,3600,300039,46114,41,blue,blue,blue,blue,1,756.5,bluePURPLE,253.925,300795.5,1010.425,1,28.428,231.212,434.013,202.833,405.634,608.435
pro,stp,2,130518,pro_stp_run2_130518,RED,i,mi,blue,2400,306038,46114,42,blue,blue,blue,blue,1,664,blueRED,259.924,306702,923.924,1,28.428,231.212,434.013,202.833,405.634,608.435
pro,stp,2,130518,pro_stp_run2_130518,PURPLE,i,mi,white,1200,310838,46114,43,white,white,white,white,1,613,whitePURPLE,264.724,311451,877.724,1,28.428,231.212,434.013,202.833,405.634,608.435
pro,stp,2,130518,pro_stp_run2_130518,RED,i,mi,white,3600,314437,46114,44,white,white,white,white,1,766.5,whiteRED,268.323,315203.5,1034.823,1,28.428,231.212,434.013,202.833,405.634,608.435
pro,stp,2,130518,pro_stp_run2_130518,RED,i,mi,white,1200,320436,46114,45,white,white,white,white,1,569,whiteRED,274.322,321005,843.322,1,28.428,231.212,434.013,202.833,405.634,608.435
pro,stp,2,130518,pro_stp_run2_130518,YELLOW,c,pc50,yellow,2400,324036,46114,46,yellow,yellow,yellow,yellow,1,655,yellowYELLOW,277.922,324691,932.922,1,28.428,231.212,434.013,202.833,405.634,608.435
pro,stp,2,130518,pro_stp_run2_130518,PURPLE,i,mi,red,1200,328835,46114,47,red,red,red,red,1,694,redPURPLE,282.721,329529,976.721,1,28.428,231.212,434.013,202.833,405.634,608.435
pro,stp,2,130518,pro_stp_run2_130518,BLACK,i,pc50,pink,2400,332434,46114,48,pink,pink,pink,pink,1,694.5,pinkBLACK,286.32,333128.5,980.82,1,28.428,231.212,434.013,202.833,405.634,608.435
pro,stp,2,130518,pro_stp_run2_130518,PINK,c,pc50,pink,1200,337233,46114,49,pink,pink,pink,pink,1,781,pinkPINK,291.119,338014,1072.119,1,28.428,231.212,434.013,202.833,405.634,608.435
pro,stp,2,130518,pro_stp_run2_130518,GREEN,c,pc50,green,2400,340833,46114,50,green,green,green,green,1,1002.5,greenGREEN,294.719,341835.5,1297.219,1,28.428,231.212,434.013,202.833,405.634,608.435
pro,stp,2,130518,pro_stp_run2_130518,WHITE,i,mi,purple,2400,345632,46114,51,purple,purple,purple,purple,1,730.5,purpleWHITE,299.518,346362.5,1030.018,1,28.428,231.212,434.013,202.833,405.634,608.435
pro,stp,2,130518,pro_stp_run2_130518,RED,c,mi,red,1200,350431,46114,52,red,red,red,red,1,843,redRED,304.317,351274,1147.317,1,28.428,231.212,434.013,202.833,405.634,608.435
pro,stp,2,130518,pro_stp_run2_130518,BLACK,i,pc50,yellow,2400,354031,46114,53,yellow,yellow,yellow,yellow,1,733.5,yellowBLACK,307.917,354764.5,1041.417,1,28.428,231.212,434.013,202.833,405.634,608.435
pro,stp,2,130518,pro_stp_run2_130518,BLUE,i,mi,white,3600,358830,46114,54,white,white,white,white,1,689,whiteBLUE,312.716,359519,1001.716,1,28.428,231.212,434.013,202.833,405.634,608.435
pro,stp,2,130518,pro_stp_run2_130518,BLACK,c,pc50,black,2400,364829,46114,55,black,black,black,black,1,606.5,blackBLACK,318.715,365435.5,925.215,1,28.428,231.212,434.013,202.833,405.634,608.435
pro,stp,2,130518,pro_stp_run2_130518,BLUE,i,mi,purple,3600,369628,46114,56,purple,purple,purple,purple,1,829,purpleBLUE,323.514,370457,1152.514,1,28.428,231.212,434.013,202.833,405.634,608.435
pro,stp,2,130518,pro_stp_run2_130518,WHITE,c,mi,white,3600,375627,46114,57,white,white,white,white,1,620,whiteWHITE,329.513,376247,949.513,1,28.428,231.212,434.013,202.833,405.634,608.435
pro,stp,2,130518,pro_stp_run2_130518,BLUE,i,mi,red,1200,381626,46114,58,red,red,red,red,1,789.5,redBLUE,335.512,382415.5,1125.012,1,28.428,231.212,434.013,202.833,405.634,608.435
pro,stp,2,130518,pro_stp_run2_130518,PURPLE,i,mi,white,3600,385226,46114,59,white,white,white,white,1,763.5,whitePURPLE,339.112,385989.5,1102.612,1,28.428,231.212,434.013,202.833,405.634,608.435
pro,stp,2,130518,pro_stp_run2_130518,BLUE,i,mi,red,1200,391225,46114,60,red,red,red,red,1,742,redBLUE,345.111,391967,1087.111,1,28.428,231.212,434.013,202.833,405.634,608.435
pro,stp,2,130518,pro_stp_run2_130518,YELLOW,i,pc50,green,1200,394841,46114,61,green,green,green,green,1,902,greenYELLOW,348.727,395743,1250.727,1,28.428,231.212,434.013,202.833,405.634,608.435
pro,stp,2,130518,pro_stp_run2_130518,BLUE,i,mi,purple,1200,398440,46114,62,purple,purple,purple,purple,1,674,purpleBLUE,352.326,399114,1026.326,1,28.428,231.212,434.013,202.833,405.634,608.435
pro,stp,2,130518,pro_stp_run2_130518,BLUE,c,mi,blue,1200,402040,46114,63,blue,blue,blue,blue,1,732.5,blueBLUE,355.926,402772.5,1088.426,1,28.428,231.212,434.013,202.833,405.634,608.435
pro,stp,2,130518,pro_stp_run2_130518,RED,c,mi,red,3600,405639,46114,64,red,red,red,red,1,625,redRED,359.525,406264,984.525,1,28.428,231.212,434.013,202.833,405.634,608.435
pro,stp,2,130518,pro_stp_run2_130518,WHITE,i,mi,blue,3600,411638,46114,65,blue,blue,blue,blue,1,734.5,blueWHITE,365.524,412372.5,1100.024,1,28.428,231.212,434.013,202.833,405.634,608.435
pro,stp,2,130518,pro_stp_run2_130518,GREEN,i,pc50,black,2400,417637,46114,66,black,black,black,black,1,684,blackGREEN,371.523,418321,1055.523,1,28.428,231.212,434.013,202.833,405.634,608.435
pro,stp,2,130518,pro_stp_run2_130518,PINK,i,pc50,yellow,2400,422436,46114,67,yellow,yellow,yellow,yellow,1,915,yellowPINK,376.322,423351,1291.322,1,28.428,231.212,434.013,202.833,405.634,608.435
pro,stp,2,130518,pro_stp_run2_130518,WHITE,c,mi,white,2400,427236,46114,68,white,white,white,white,1,636,whiteWHITE,381.122,427872,1017.122,1,28.428,231.212,434.013,202.833,405.634,608.435
pro,stp,2,130518,pro_stp_run2_130518,PINK,i,pc50,green,1200,432035,46114,69,green,green- clears throat after,green,green,1,755,greenPINK,385.921,432790,1140.921,1,28.428,231.212,434.013,202.833,405.634,608.435
pro,stp,2,130518,pro_stp_run2_130518,WHITE,i,mi,blue,2400,435634,46114,70,blue,blue,blue,blue,1,692,blueWHITE,389.52,436326,1081.52,1,28.428,231.212,434.013,202.833,405.634,608.435
pro,stp,2,130518,pro_stp_run2_130518,BLACK,c,pc50,black,3600,440434,46114,71,black,black,black,black,1,725.5,blackBLACK,394.32,441159.5,1119.82,1,28.428,231.212,434.013,202.833,405.634,608.435
pro,stp,2,130518,pro_stp_run2_130518,WHITE,i,mi,red,3600,446433,46114,72,red,red,red,red,1,768.5,redWHITE,400.319,447201.5,1168.819,1,28.428,231.212,434.013,202.833,405.634,608.435
pro,stp,2,130518,pro_stp_run2_130518,BLUE,i,mi,red,2400,482427,46114,73,red,red,red,red,1,695.5,redBLUE,436.313,483122.5,1131.813,1,28.428,231.212,434.013,202.833,405.634,608.435
pro,stp,2,130518,pro_stp_run2_130518,PURPLE,i,mi,white,3600,487226,46114,74,white,white,white,white,1,685,whitePURPLE,441.112,487911,1126.112,1,28.428,231.212,434.013,202.833,405.634,608.435
pro,stp,2,130518,pro_stp_run2_130518,RED,i,mi,blue,1200,493225,46114,75,blue,blue,blue,blue,1,943,blueRED,447.111,494168,1390.111,1,28.428,231.212,434.013,202.833,405.634,608.435
pro,stp,2,130518,pro_stp_run2_130518,RED,c,mi,red,1200,496825,46114,76,red,red,red,red,1,766,redRED,450.711,497591,1216.711,1,28.428,231.212,434.013,202.833,405.634,608.435
pro,stp,2,130518,pro_stp_run2_130518,BLUE,i,mi,purple,1200,500441,46114,77,purple,purple,purple,purple,1,716.5,purpleBLUE,454.327,501157.5,1170.827,1,28.428,231.212,434.013,202.833,405.634,608.435
pro,stp,2,130518,pro_stp_run2_130518,WHITE,c,mi,white,2400,504040,46114,78,white,white,white,white,1,745,whiteWHITE,457.926,504785,1202.926,1,28.428,231.212,434.013,202.833,405.634,608.435
pro,stp,2,130518,pro_stp_run2_130518,PINK,c,pc50,pink,2400,508839,46114,79,pink,pink,pink,pink,1,1237,pinkPINK,462.725,510076,1699.725,1,28.428,231.212,434.013,202.833,405.634,608.435
pro,stp,2,130518,pro_stp_run2_130518,WHITE,i,mi,red,2400,513639,46114,80,red,red,red,red,1,1048.5,redWHITE,467.525,514687.5,1516.025,1,28.428,231.212,434.013,202.833,405.634,608.435
pro,stp,2,130518,pro_stp_run2_130518,PURPLE,c,mi,purple,3600,518438,46114,81,purple,purple,purple,purple,1,990.5,purplePURPLE,472.324,519428.5,1462.824,1,28.428,231.212,434.013,202.833,405.634,608.435
pro,stp,2,130518,pro_stp_run2_130518,BLACK,c,pc50,black,1200,524437,46114,82,black,black,black,black,1,716.5,blackBLACK,478.323,525153.5,1194.823,1,28.428,231.212,434.013,202.833,405.634,608.435
pro,stp,2,130518,pro_stp_run2_130518,PURPLE,i,mi,blue,3600,528036,46114,83,blue,blue,blue,blue,1,909.5,bluePURPLE,481.922,528945.5,1391.422,1,28.428,231.212,434.013,202.833,405.634,608.435
pro,stp,2,130518,pro_stp_run2_130518,WHITE,i,mi,blue,3600,534035,46114,84,blue,blue,blue,blue,1,877,blueWHITE,487.921,534912,1364.921,1,28.428,231.212,434.013,202.833,405.634,608.435
pro,stp,2,130518,pro_stp_run2_130518,PURPLE,i,mi,red,3600,540034,46114,85,red,red,red,red,1,957.5,redPURPLE,493.92,540991.5,1451.42,1,28.428,231.212,434.013,202.833,405.634,608.435
pro,stp,2,130518,pro_stp_run2_130518,PINK,i,pc50,yellow,3600,546033,46114,86,yellow,yellow,yellow,yellow,1,969,yellowPINK,499.919,547002,1468.919,1,28.428,231.212,434.013,202.833,405.634,608.435
pro,stp,2,130518,pro_stp_run2_130518,PURPLE,i,mi,white,2400,552032,46114,87,white,white,white,white,1,1498.5,whitePURPLE,505.918,553530.5,2004.418,1,28.428,231.212,434.013,202.833,405.634,608.435
pro,stp,2,130518,pro_stp_run2_130518,RED,c,mi,red,2400,556832,46114,88,red,red,red,red,1,762,redRED,510.718,557594,1272.718,1,28.428,231.212,434.013,202.833,405.634,608.435
pro,stp,2,130518,pro_stp_run2_130518,RED,i,mi,purple,1200,561631,46114,89,purple,purple,purple,purple,1,739.5,purpleRED,515.517,562370.5,1255.017,1,28.428,231.212,434.013,202.833,405.634,608.435
pro,stp,2,130518,pro_stp_run2_130518,WHITE,i,mi,blue,1200,565230,46114,90,blue,blue,blue,blue,1,1143.5,blueWHITE,519.116,566373.5,1662.616,1,28.428,231.212,434.013,202.833,405.634,608.435
pro,stp,2,130518,pro_stp_run2_130518,RED,i,mi,white,3600,568830,46114,91,white,white,white,white,1,775,whiteRED,522.716,569605,1297.716,1,28.428,231.212,434.013,202.833,405.634,608.435
pro,stp,2,130518,pro_stp_run2_130518,YELLOW,c,pc50,yellow,2400,574829,46114,92,yellow,yellow,yellow,yellow,1,707,yellowYELLOW,528.715,575536,1235.715,1,28.428,231.212,434.013,202.833,405.634,608.435
pro,stp,2,130518,pro_stp_run2_130518,PURPLE,i,mi,red,1200,579628,46114,93,red,red- gets uct off,red,red,1,2362.5,redPURPLE,533.514,581990.5,2896.014,1,28.428,231.212,434.013,202.833,405.634,608.435
pro,stp,2,130518,pro_stp_run2_130518,BLUE,i,mi,white,2400,583227,46114,94,white,white,white,white,1,755,whiteBLUE,537.113,583982,1292.113,1,28.428,231.212,434.013,202.833,405.634,608.435
pro,stp,2,130518,pro_stp_run2_130518,PINK,c,pc50,pink,1200,588027,46114,95,pink,pink,pink,pink,1,646,pinkPINK,541.913,588673,1187.913,1,28.428,231.212,434.013,202.833,405.634,608.435
pro,stp,2,130518,pro_stp_run2_130518,GREEN,c,pc50,green,3600,591626,46114,96,green,green,green,green,1,719.5,greenGREEN,545.512,592345.5,1265.012,1,28.428,231.212,434.013,202.833,405.634,608.435
pro,stp,2,130518,pro_stp_run2_130518,BLACK,i,pc50,yellow,1200,597625,46114,97,yellow,yellow,yellow,yellow,1,728,yellowBLACK,551.511,598353,1279.511,1,28.428,231.212,434.013,202.833,405.634,608.435
pro,stp,2,130518,pro_stp_run2_130518,WHITE,c,mi,white,2400,601225,46114,98,white,white,white,white,1,668.5,whiteWHITE,555.111,601893.5,1223.611,1,28.428,231.212,434.013,202.833,405.634,608.435
pro,stp,2,130518,pro_stp_run2_130518,RED,i,mi,white,3600,606040,46114,99,white,white,white,white,1,717,whiteRED,559.926,606757,1276.926,1,28.428,231.212,434.013,202.833,405.634,608.435
pro,stp,2,130518,pro_stp_run2_130518,BLACK,c,pc50,black,3600,612040,46114,100,black,black,black,black,1,672,blackBLACK,565.926,612712,1237.926,1,28.428,231.212,434.013,202.833,405.634,608.435
pro,stp,2,130518,pro_stp_run2_130518,PINK,i,pc50,green,1200,618039,46114,101,green,green,green,green,1,761,greenPINK,571.925,618800,1332.925,1,28.428,231.212,434.013,202.833,405.634,608.435
pro,stp,2,130518,pro_stp_run2_130518,BLUE,i,mi,purple,2400,621638,46114,102,purple,purple,purple,purple,1,751.5,purpleBLUE,575.524,622389.5,1327.024,1,28.428,231.212,434.013,202.833,405.634,608.435
pro,stp,2,130518,pro_stp_run2_130518,BLUE,c,mi,blue,1200,626437,46114,103,blue,blue,blue,blue,1,687.5,blueBLUE,580.323,627124.5,1267.823,1,28.428,231.212,434.013,202.833,405.634,608.435
pro,stp,2,130518,pro_stp_run2_130518,BLUE,i,mi,red,3600,630037,46114,104,red,red,red,red,1,967.5,redBLUE,583.923,631004.5,1551.423,1,28.428,231.212,434.013,202.833,405.634,608.435
pro,stp,2,130518,pro_stp_run2_130518,GREEN,i,pc50,black,1200,636036,46114,105,black,black,black,black,1,1409.5,blackGREEN,589.922,637445.5,1999.422,1,28.428,231.212,434.013,202.833,405.634,608.435
pro,stp,2,130518,pro_stp_run2_130518,BLACK,i,pc50,pink,3600,639635,46114,106,pink,pink,pink,pink,1,662,pinkBLACK,593.521,640297,1255.521,1,28.428,231.212,434.013,202.833,405.634,608.435
pro,stp,2,130518,pro_stp_run2_130518,YELLOW,i,pc50,green,2400,645634,46114,107,green,green,green,green,1,915,greenYELLOW,599.52,646549,1514.52,1,28.428,231.212,434.013,202.833,405.634,608.435
pro,stp,2,130518,pro_stp_run2_130518,WHITE,i,mi,purple,2400,650433,46114,108,purple,purple,purple,purple,1,723.5,purpleWHITE,604.319,651156.5,1327.819,1,28.428,231.212,434.013,202.833,405.634,608.435
rea,stp,1,130518,rea_stp_run1_130518,PURPLE,c,mi,purple,3600,118258,87544,1,purple,purple,purple,purple,1,686,purplePURPLE,30.714,118944,716.714,1,28.414,251.612,473.609,223.233,445.231,666.045
rea,stp,1,130518,rea_stp_run1_130518,BLUE,c,mc,blue,3600,124257,87544,2,blue,blue,blue,blue,1,728.5,blueBLUE,36.713,124985.5,765.213,1,28.414,251.612,473.609,223.233,445.231,666.045
rea,stp,1,130518,rea_stp_run1_130518,YELLOW,c,pc50,yellow,2400,130256,87544,3,yellow,yellow,yellow,yellow,1,640.5,yellowYELLOW,42.712,130896.5,683.212,1,28.414,251.612,473.609,223.233,445.231,666.045
rea,stp,1,130518,rea_stp_run1_130518,BLUE,i,mi,purple,2400,135055,87544,4,purple,purple,purple,purple,1,762.5,purpleBLUE,47.511,135817.5,810.011,1,28.414,251.612,473.609,223.233,445.231,666.045
rea,stp,1,130518,rea_stp_run1_130518,YELLOW,i,pc50,pink,1200,139854,87544,5,pink,pink,pink,pink,1,687,pinkYELLOW,52.31,140541,739.31,1,28.414,251.612,473.609,223.233,445.231,666.045
rea,stp,1,130518,rea_stp_run1_130518,BLUE,c,mc,blue,3600,143453,87544,6,blue,blue,blue,blue,1,747.5,blueBLUE,55.909,144200.5,803.409,1,28.414,251.612,473.609,223.233,445.231,666.045
rea,stp,1,130518,rea_stp_run1_130518,PURPLE,c,mi,purple,1200,149453,87544,7,purple,purple,purple,purple,1,640,purplePURPLE,61.909,150093,701.909,1,28.414,251.612,473.609,223.233,445.231,666.045
rea,stp,1,130518,rea_stp_run1_130518,GREEN,i,pc50,pink,3600,153052,87544,8,pink,pink,pink,pink,1,735.5,pinkGREEN,65.508,153787.5,801.008,1,28.414,251.612,473.609,223.233,445.231,666.045
rea,stp,1,130518,rea_stp_run1_130518,RED,i,mi,white,1200,159051,87544,9,white,white,white,white,1,688,whiteRED,71.507,159739,759.507,1,28.414,251.612,473.609,223.233,445.231,666.045
rea,stp,1,130518,rea_stp_run1_130518,PINK,i,pc50,yellow,2400,162650,87544,10,yellow,yellow,yellow,yellow,1,739,yellowPINK,75.106,163389,814.106,1,28.414,251.612,473.609,223.233,445.231,666.045
rea,stp,1,130518,rea_stp_run1_130518,RED,c,mc,red,2400,167450,87544,11,red,red,red,red,1,642,redRED,79.906,168092,721.906,1,28.414,251.612,473.609,223.233,445.231,666.045
rea,stp,1,130518,rea_stp_run1_130518,WHITE,i,mi,purple,1200,172249,87544,12,purple,purple,purple,purple,1,771,purpleWHITE,84.705,173020,855.705,1,28.414,251.612,473.609,223.233,445.231,666.045
rea,stp,1,130518,rea_stp_run1_130518,BLUE,i,mi,white,1200,175848,87544,13,white,white,white,white,1,679.5,whiteBLUE,88.304,176527.5,767.804,1,28.414,251.612,473.609,223.233,445.231,666.045
rea,stp,1,130518,rea_stp_run1_130518,RED,i,mi,purple,3600,179448,87544,14,purple,purple,purple,purple,1,737.5,purpleRED,91.904,180185.5,829.404,1,28.414,251.612,473.609,223.233,445.231,666.045
rea,stp,1,130518,rea_stp_run1_130518,PURPLE,i,mi,white,3600,185463,87544,15,white,white,white,white,1,717,whitePURPLE,97.919,186180,814.919,1,28.414,251.612,473.609,223.233,445.231,666.045
rea,stp,1,130518,rea_stp_run1_130518,RED,i,mi,purple,3600,191462,87544,16,purple,purple,purple,purple,1,740.5,purpleRED,103.918,192202.5,844.418,1,28.414,251.612,473.609,223.233,445.231,666.045
rea,stp,1,130518,rea_stp_run1_130518,GREEN,i,pc50,black,2400,197462,87544,17,black,black,black,black,1,788.5,blackGREEN,109.918,198250.5,898.418,1,28.414,251.612,473.609,223.233,445.231,666.045
rea,stp,1,130518,rea_stp_run1_130518,RED,c,mc,red,1200,202261,87544,18,red,red,red,red,1,765.5,redRED,114.717,203026.5,880.217,1,28.414,251.612,473.609,223.233,445.231,666.045
rea,stp,1,130518,rea_stp_run1_130518,RED,c,mc,red,2400,205860,87544,19,red,red,red,red,1,756,redRED,118.316,206616,874.316,1,28.414,251.612,473.609,223.233,445.231,666.045
rea,stp,1,130518,rea_stp_run1_130518,BLUE,c,mc,blue,2400,210659,87544,20,blue,blue,blue,blue,1,683,blueBLUE,123.115,211342,806.115,1,28.414,251.612,473.609,223.233,445.231,666.045
rea,stp,1,130518,rea_stp_run1_130518,RED,c,mc,red,3600,215459,87544,21,red,red,red,red,1,706,redRED,127.915,216165,833.915,1,28.414,251.612,473.609,223.233,445.231,666.045
rea,stp,1,130518,rea_stp_run1_130518,BLUE,c,mc,blue,1200,221458,87544,22,blue,blue,blue,blue,1,778.5,blueBLUE,133.914,222236.5,912.414,1,28.414,251.612,473.609,223.233,445.231,666.045
rea,stp,1,130518,rea_stp_run1_130518,BLUE,i,mi,purple,1200,225057,87544,23,purple,purple,purple,purple,1,812,purpleBLUE,137.513,225869,949.513,1,28.414,251.612,473.609,223.233,445.231,666.045
rea,stp,1,130518,rea_stp_run1_130518,BLUE,c,mc,blue,2400,228657,87544,24,blue,blue,blue,blue,1,689.5,blueBLUE,141.113,229346.5,830.613,1,28.414,251.612,473.609,223.233,445.231,666.045
rea,stp,1,130518,rea_stp_run1_130518,RED,c,mc,red,3600,233456,87544,25,red,red,red,red,1,738,redRED,145.912,234194,883.912,1,28.414,251.612,473.609,223.233,445.231,666.045
rea,stp,1,130518,rea_stp_run1_130518,WHITE,c,mi,white,2400,239455,87544,26,white,white,white,white,1,616,whiteWHITE,151.911,240071,767.911,1,28.414,251.612,473.609,223.233,445.231,666.045
rea,stp,1,130518,rea_stp_run1_130518,RED,c,mc,red,3600,244254,87544,27,red,red,red,red,1,704,redRED,156.71,244958,860.71,1,28.414,251.612,473.609,223.233,445.231,666.045
rea,stp,1,130518,rea_stp_run1_130518,BLUE,c,mc,blue,2400,250253,87544,28,blue,blue,blue,blue,1,696.5,blueBLUE,162.709,250949.5,859.209,1,28.414,251.612,473.609,223.233,445.231,666.045
rea,stp,1,130518,rea_stp_run1_130518,WHITE,c,mi,white,2400,255052,87544,29,white,white,white,white,1,671.5,whiteWHITE,167.508,255723.5,839.008,1,28.414,251.612,473.609,223.233,445.231,666.045
rea,stp,1,130518,rea_stp_run1_130518,WHITE,i,mi,purple,1200,259852,87544,30,purple,purple,purple,purple,1,627.5,purpleWHITE,172.308,260479.5,799.808,1,28.414,251.612,473.609,223.233,445.231,666.045
rea,stp,1,130518,rea_stp_run1_130518,BLUE,c,mc,blue,3600,263451,87544,31,blue,blue,blue,blue,1,733,blueBLUE,175.907,264184,908.907,1,28.414,251.612,473.609,223.233,445.231,666.045
rea,stp,1,130518,rea_stp_run1_130518,RED,i,mi,white,1200,269450,87544,32,white,white,white,white,1,689,whiteRED,181.906,270139,870.906,1,28.414,251.612,473.609,223.233,445.231,666.045
rea,stp,1,130518,rea_stp_run1_130518,PURPLE,i,mi,white,1200,273049,87544,33,white,white,white,white,1,725.5,whitePURPLE,185.505,273774.5,911.005,1,28.414,251.612,473.609,223.233,445.231,666.045
rea,stp,1,130518,rea_stp_run1_130518,PINK,c,pc50,pink,1200,276649,87544,34,pink,pink,pink,pink,1,761,pinkPINK,189.105,277410,950.105,1,28.414,251.612,473.609,223.233,445.231,666.045
rea,stp,1,130518,rea_stp_run1_130518,GREEN,c,pc50,green,3600,280248,87544,35,green,green,green,green,1,767.5,greenGREEN,192.704,281015.5,960.204,1,28.414,251.612,473.609,223.233,445.231,666.045
rea,stp,1,130518,rea_stp_run1_130518,RED,c,mc,red,2400,286264,87544,36,red,red,red,red,1,638,redRED,198.72,286902,836.72,1,28.414,251.612,473.609,223.233,445.231,666.045
rea,stp,1,130518,rea_stp_run1_130518,RED,c,mc,red,1200,291063,87544,37,red,red,red,red,1,814,redRED,203.519,291877,1017.519,1,28.414,251.612,473.609,223.233,445.231,666.045
rea,stp,1,130518,rea_stp_run1_130518,BLACK,c,pc50,black,3600,294663,87544,38,black,black,black,black,1,781,blackBLACK,207.119,295444,988.119,1,28.414,251.612,473.609,223.233,445.231,666.045
rea,stp,1,130518,rea_stp_run1_130518,BLUE,i,mi,white,2400,300662,87544,39,white,white,white,white,1,749,whiteBLUE,213.118,301411,962.118,1,28.414,251.612,473.609,223.233,445.231,666.045
rea,stp,1,130518,rea_stp_run1_130518,BLUE,c,mc,blue,3600,305461,87544,40,blue,blue,blue,blue,1,724,blueBLUE,217.917,306185,941.917,1,28.414,251.612,473.609,223.233,445.231,666.045
rea,stp,1,130518,rea_stp_run1_130518,WHITE,i,mi,purple,2400,341455,87544,41,purple,purple,purple,purple,1,672.5,purpleWHITE,253.911,342127.5,926.411,1,28.414,251.612,473.609,223.233,445.231,666.045
rea,stp,1,130518,rea_stp_run1_130518,RED,i,mi,white,1200,346254,87544,42,white,white,white,white,1,742,whiteRED,258.71,346996,1000.71,1,28.414,251.612,473.609,223.233,445.231,666.045
rea,stp,1,130518,rea_stp_run1_130518,BLACK,c,pc50,black,1200,349854,87544,43,black,black,black,black,1,758.5,blackBLACK,262.31,350612.5,1020.81,1,28.414,251.612,473.609,223.233,445.231,666.045
rea,stp,1,130518,rea_stp_run1_130518,RED,i,mi,purple,1200,353453,87544,44,purple,purple,purple,purple,1,784,purpleRED,265.909,354237,1049.909,1,28.414,251.612,473.609,223.233,445.231,666.045
rea,stp,1,130518,rea_stp_run1_130518,WHITE,i,mi,purple,2400,357053,87544,45,purple,purple,purple,purple,1,823.5,purpleWHITE,269.509,357876.5,1093.009,1,28.414,251.612,473.609,223.233,445.231,666.045
rea,stp,1,130518,rea_stp_run1_130518,BLUE,c,mc,blue,3600,361852,87544,46,blue,blue,blue,blue,1,698,blueBLUE,274.308,362550,972.308,1,28.414,251.612,473.609,223.233,445.231,666.045
rea,stp,1,130518,rea_stp_run1_130518,RED,c,mc,red,3600,367851,87544,47,red,red,red,red,1,565,redRED,280.307,368416,845.307,1,28.414,251.612,473.609,223.233,445.231,666.045
rea,stp,1,130518,rea_stp_run1_130518,BLUE,c,mc,blue,2400,373850,87544,48,blue,blue,blue,blue,1,600,blueBLUE,286.306,374450,886.306,1,28.414,251.612,473.609,223.233,445.231,666.045
rea,stp,1,130518,rea_stp_run1_130518,PINK,c,pc50,pink,1200,378649,87544,49,pink,pink,pink,pink,1,699.5,pinkPINK,291.105,379348.5,990.605,1,28.414,251.612,473.609,223.233,445.231,666.045
rea,stp,1,130518,rea_stp_run1_130518,PURPLE,i,mi,white,1200,382249,87544,50,white,white,white,white,1,747,whitePURPLE,294.705,382996,1041.705,1,28.414,251.612,473.609,223.233,445.231,666.045
rea,stp,1,130518,rea_stp_run1_130518,RED,c,mc,red,1200,385848,87544,51,red,red,red,red,1,698.5,redRED,298.304,386546.5,996.804,1,28.414,251.612,473.609,223.233,445.231,666.045
rea,stp,1,130518,rea_stp_run1_130518,BLUE,i,mi,white,3600,389448,87544,52,white,white,white,white,1,712.5,whiteBLUE,301.904,390160.5,1014.404,1,28.414,251.612,473.609,223.233,445.231,666.045
rea,stp,1,130518,rea_stp_run1_130518,RED,c,mc,red,2400,395463,87544,53,red,red,red,red,1,586.5,redRED,307.919,396049.5,894.419,1,28.414,251.612,473.609,223.233,445.231,666.045
rea,stp,1,130518,rea_stp_run1_130518,RED,c,mc,red,2400,400262,87544,54,red,red,red,red,1,854.5,redRED,312.718,401116.5,1167.218,1,28.414,251.612,473.609,223.233,445.231,666.045
rea,stp,1,130518,rea_stp_run1_130518,PURPLE,c,mi,purple,2400,405062,87544,55,purple,purple,purple,purple,1,831,purplePURPLE,317.518,405893,1148.518,1,28.414,251.612,473.609,223.233,445.231,666.045
rea,stp,1,130518,rea_stp_run1_130518,BLUE,i,mi,white,2400,409861,87544,56,white,white,white,white,1,714,whiteBLUE,322.317,410575,1036.317,1,28.414,251.612,473.609,223.233,445.231,666.045
rea,stp,1,130518,rea_stp_run1_130518,PURPLE,c,mi,purple,3600,414660,87544,57,purple,purple,purple,purple,1,643.5,purplePURPLE,327.116,415303.5,970.616,1,28.414,251.612,473.609,223.233,445.231,666.045
rea,stp,1,130518,rea_stp_run1_130518,BLUE,c,mc,blue,3600,420659,87544,58,blue,blue,blue,blue,1,567,blueBLUE,333.115,421226,900.115,1,28.414,251.612,473.609,223.233,445.231,666.045
rea,stp,1,130518,rea_stp_run1_130518,BLUE,c,mc,blue,1200,426658,87544,59,blue,blue,blue,blue,1,535,blueBLUE,339.114,427193,874.114,1,28.414,251.612,473.609,223.233,445.231,666.045
rea,stp,1,130518,rea_stp_run1_130518,RED,c,mc,red,3600,430258,87544,60,red,red,red,red,1,849.5,redRED,342.714,431107.5,1192.214,1,28.414,251.612,473.609,223.233,445.231,666.045
rea,stp,1,130518,rea_stp_run1_130518,YELLOW,c,pc50,yellow,3600,436257,87544,61,yellow,yellow,yellow,yellow,1,677,yellowYELLOW,348.713,436934,1025.713,1,28.414,251.612,473.609,223.233,445.231,666.045
rea,stp,1,130518,rea_stp_run1_130518,BLUE,i,mi,purple,1200,442256,87544,62,purple,purple,purple,purple,1,928.5,purpleBLUE,354.712,443184.5,1283.212,1,28.414,251.612,473.609,223.233,445.231,666.045
rea,stp,1,130518,rea_stp_run1_130518,BLACK,i,pc50,pink,1200,445855,87544,63,pink,pink,pink,pink,1,625.5,pinkBLACK,358.311,446480.5,983.811,1,28.414,251.612,473.609,223.233,445.231,666.045
rea,stp,1,130518,rea_stp_run1_130518,BLUE,c,mc,blue,3600,449455,87544,64,blue,blue,blue,blue,1,531.5,blueBLUE,361.911,449986.5,893.411,1,28.414,251.612,473.609,223.233,445.231,666.045
rea,stp,1,130518,rea_stp_run1_130518,YELLOW,i,pc50,black,3600,455454,87544,65,black,black,black,black,1,672,blackYELLOW,367.91,456126,1039.91,1,28.414,251.612,473.609,223.233,445.231,666.045
rea,stp,1,130518,rea_stp_run1_130518,RED,i,mi,purple,2400,461453,87544,66,purple,purple,purple,purple,1,765.5,purpleRED,373.909,462218.5,1139.409,1,28.414,251.612,473.609,223.233,445.231,666.045
rea,stp,1,130518,rea_stp_run1_130518,BLUE,c,mc,blue,2400,466252,87544,67,blue,blue,blue,blue,1,679,blueBLUE,378.708,466931,1057.708,1,28.414,251.612,473.609,223.233,445.231,666.045
rea,stp,1,130518,rea_stp_run1_130518,RED,c,mc,red,1200,471051,87544,68,red,red,red,red,1,701.5,redRED,383.507,471752.5,1085.007,1,28.414,251.612,473.609,223.233,445.231,666.045
rea,stp,1,130518,rea_stp_run1_130518,PURPLE,i,mi,white,1200,474651,87544,69,white,white,white,white,1,616.5,whitePURPLE,387.107,475267.5,1003.607,1,28.414,251.612,473.609,223.233,445.231,666.045
rea,stp,1,130518,rea_stp_run1_130518,RED,c,mc,red,3600,478250,87544,70,red,red,red,red,1,482,redRED,390.706,478732,872.706,1,28.414,251.612,473.609,223.233,445.231,666.045
rea,stp,1,130518,rea_stp_run1_130518,RED,i,mi,white,2400,484249,87544,71,white,white,white,white,1,643,whiteRED,396.705,484892,1039.705,1,28.414,251.612,473.609,223.233,445.231,666.045
rea,stp,1,130518,rea_stp_run1_130518,RED,c,mc,red,2400,489048,87544,72,red,red,red,red,1,585.5,redRED,401.504,489633.5,987.004,1,28.414,251.612,473.609,223.233,445.231,666.045
rea,stp,1,130518,rea_stp_run1_130518,BLUE,c,mc,blue,2400,493848,87544,73,blue,blue,blue,blue,1,705,blueBLUE,406.304,494553,1111.304,1,28.414,251.612,473.609,223.233,445.231,666.045
rea,stp,1,130518,rea_stp_run1_130518,YELLOW,i,pc50,green,2400,498663,87544,74,green,green,green,green,1,752.5,greenYELLOW,411.119,499415.5,1163.619,1,28.414,251.612,473.609,223.233,445.231,666.045
rea,stp,1,130518,rea_stp_run1_130518,BLUE,i,mi,purple,1200,503463,87544,75,purple,purple,purple,purple,1,745.5,purpleBLUE,415.919,504208.5,1161.419,1,28.414,251.612,473.609,223.233,445.231,666.045
rea,stp,1,130518,rea_stp_run1_130518,PINK,i,pc50,black,1200,507062,87544,76,black,black,black,black,1,647,blackPINK,419.518,507709,1066.518,1,28.414,251.612,473.609,223.233,445.231,666.045
rea,stp,1,130518,rea_stp_run1_130518,WHITE,c,mi,white,2400,510662,87544,77,white,white,white,white,1,577.5,whiteWHITE,423.118,511239.5,1000.618,1,28.414,251.612,473.609,223.233,445.231,666.045
rea,stp,1,130518,rea_stp_run1_130518,WHITE,c,mi,white,3600,515461,87544,78,white,white,white,white,1,577.5,whiteWHITE,427.917,516038.5,1005.417,1,28.414,251.612,473.609,223.233,445.231,666.045
rea,stp,1,130518,rea_stp_run1_130518,GREEN,c,pc50,green,3600,521460,87544,79,green,green,green,green,1,652,greenGREEN,433.916,522112,1085.916,1,28.414,251.612,473.609,223.233,445.231,666.045
rea,stp,1,130518,rea_stp_run1_130518,BLUE,c,mc,blue,3600,527459,87544,80,blue,blue,blue,blue,1,583.5,blueBLUE,439.915,528042.5,1023.415,1,28.414,251.612,473.609,223.233,445.231,666.045
rea,stp,1,130518,rea_stp_run1_130518,RED,c,mc,red,1200,563453,87544,81,red,red,red,red,1,600.5,redRED,475.909,564053.5,1076.409,1,28.414,251.612,473.609,223.233,445.231,666.045
rea,stp,1,130518,rea_stp_run1_130518,BLUE,i,mi,white,1200,567053,87544,82,white,white,white,white,1,629.5,whiteBLUE,479.509,567682.5,1109.009,1,28.414,251.612,473.609,223.233,445.231,666.045
rea,stp,1,130518,rea_stp_run1_130518,RED,i,mi,purple,3600,570652,87544,83,purple,purple,purple,purple,1,661,purpleRED,483.108,571313,1144.108,1,28.414,251.612,473.609,223.233,445.231,666.045
rea,stp,1,130518,rea_stp_run1_130518,PINK,i,pc50,green,2400,576651,87544,84,green,green,green,green,1,692,greenPINK,489.107,577343,1181.107,1,28.414,251.612,473.609,223.233,445.231,666.045
rea,stp,1,130518,rea_stp_run1_130518,BLUE,i,mi,purple,1200,581450,87544,85,purple,purple,purple,purple,1,750.5,purpleBLUE,493.906,582200.5,1244.406,1,28.414,251.612,473.609,223.233,445.231,666.045
rea,stp,1,130518,rea_stp_run1_130518,BLACK,i,pc50,green,1200,585050,87544,86,green,green,green,green,1,778,greenBLACK,497.506,585828,1275.506,1,28.414,251.612,473.609,223.233,445.231,666.045
rea,stp,1,130518,rea_stp_run1_130518,BLUE,c,mc,blue,2400,588649,87544,87,blue,blue,blue,blue,1,634,blueBLUE,501.105,589283,1135.105,1,28.414,251.612,473.609,223.233,445.231,666.045
rea,stp,1,130518,rea_stp_run1_130518,BLACK,i,pc50,yellow,2400,593448,87544,88,yellow,yellow,yellow,yellow,1,620.5,yellowBLACK,505.904,594068.5,1126.404,1,28.414,251.612,473.609,223.233,445.231,666.045
rea,stp,1,130518,rea_stp_run1_130518,BLUE,i,mi,white,2400,598248,87544,89,white,white,white,white,1,613.5,whiteBLUE,510.704,598861.5,1124.204,1,28.414,251.612,473.609,223.233,445.231,666.045
rea,stp,1,130518,rea_stp_run1_130518,BLUE,c,mc,blue,3600,603063,87544,90,blue,blue,blue,blue,1,587.5,blueBLUE,515.519,603650.5,1103.019,1,28.414,251.612,473.609,223.233,445.231,666.045
rea,stp,1,130518,rea_stp_run1_130518,BLUE,i,mi,purple,3600,609063,87544,91,purple,purple,purple,purple,1,705,purpleBLUE,521.519,609768,1226.519,1,28.414,251.612,473.609,223.233,445.231,666.045
rea,stp,1,130518,rea_stp_run1_130518,RED,c,mc,red,2400,615062,87544,92,red,red,red,red,1,579,redRED,527.518,615641,1106.518,1,28.414,251.612,473.609,223.233,445.231,666.045
rea,stp,1,130518,rea_stp_run1_130518,PURPLE,i,mi,white,3600,619861,87544,93,white,white,white,white,1,646,whitePURPLE,532.317,620507,1178.317,1,28.414,251.612,473.609,223.233,445.231,666.045
rea,stp,1,130518,rea_stp_run1_130518,BLUE,c,mc,blue,1200,625860,87544,94,blue,blue,blue,blue,1,549,blueBLUE,538.316,626409,1087.316,1,28.414,251.612,473.609,223.233,445.231,666.045
rea,stp,1,130518,rea_stp_run1_130518,BLUE,c,mc,blue,3600,629459,87544,95,blue,blue,blue,blue,1,720.5,blueBLUE,541.915,630179.5,1262.415,1,28.414,251.612,473.609,223.233,445.231,666.045
rea,stp,1,130518,rea_stp_run1_130518,RED,i,mi,white,1200,635458,87544,96,white,white,white,white,1,623,whiteRED,547.914,636081,1170.914,1,28.414,251.612,473.609,223.233,445.231,666.045
rea,stp,1,130518,rea_stp_run1_130518,RED,c,mc,red,1200,639058,87544,97,red,red,red,red,1,599.5,redRED,551.514,639657.5,1151.014,1,28.414,251.612,473.609,223.233,445.231,666.045
rea,stp,1,130518,rea_stp_run1_130518,RED,c,mc,red,3600,642657,87544,98,red,red,red,red,1,594,redRED,555.113,643251,1149.113,1,28.414,251.612,473.609,223.233,445.231,666.045
rea,stp,1,130518,rea_stp_run1_130518,BLUE,c,mc,blue,3600,648656,87544,99,blue,blue,blue,blue,1,507.5,blueBLUE,561.112,649163.5,1068.612,1,28.414,251.612,473.609,223.233,445.231,666.045
