task,subj,wave,session,trialtype,cresp,resp,acc,rt,trialnum,hilo,hilo_all
Axcpt,130518,wave1,baseline,AX,2,1,0,589,1,,
Axcpt,130518,wave1,baseline,BY,1,2,0,439,2,lo,lo
Axcpt,130518,wave1,baseline,Ang,,,1,0,3,,
Axcpt,130518,wave1,baseline,AX,2,2,1,401,4,,
Axcpt,130518,wave1,baseline,BY,1,,0,0,5,lo,lo
Axcpt,130518,wave1,baseline,AY,1,1,1,1480,6,,
Axcpt,130518,wave1,baseline,BY,1,1,1,447,7,lo,lo
Axcpt,130518,wave1,baseline,AX,2,2,1,339,8,,
Axcpt,130518,wave1,baseline,AX,2,2,1,301,9,,
Axcpt,130518,wave1,baseline,AX,2,2,1,306,10,,
Axcpt,130518,wave1,baseline,AX,2,2,1,387,11,,
Axcpt,130518,wave1,baseline,AX,2,2,1,327,12,,
Axcpt,130518,wave1,baseline,BY,1,1,1,381,13,lo,lo
Axcpt,130518,wave1,baseline,AY,1,1,1,750,14,,
Axcpt,130518,wave1,baseline,BX,1,2,0,1415,15,hi,hi
Axcpt,130518,wave1,baseline,Ang,,,1,0,16,,
Axcpt,130518,wave1,baseline,BY,1,1,1,690,17,lo,lo
Axcpt,130518,wave1,baseline,BY,1,1,1,405,18,lo,lo
Axcpt,130518,wave1,baseline,Bng,,,1,0,19,,
Axcpt,130518,wave1,baseline,BY,1,1,1,449,20,lo,lo
Axcpt,130518,wave1,baseline,BY,1,1,1,391,21,lo,lo
Axcpt,130518,wave1,baseline,AX,2,2,1,305,22,,
Axcpt,130518,wave1,baseline,BX,1,2,0,431,23,hi,hi
Axcpt,130518,wave1,baseline,Bng,,,1,0,24,,
Axcpt,130518,wave1,baseline,BY,1,1,1,884,25,lo,lo
Axcpt,130518,wave1,baseline,BX,1,1,1,1024,26,hi,hi
Axcpt,130518,wave1,baseline,BY,1,1,1,381,27,lo,lo
Axcpt,130518,wave1,baseline,AX,2,2,1,313,28,,
Axcpt,130518,wave1,baseline,AX,2,2,1,331,29,,
Axcpt,130518,wave1,baseline,Bng,,,1,0,30,,
Axcpt,130518,wave1,baseline,BY,1,1,1,405,31,lo,lo
Axcpt,130518,wave1,baseline,AY,1,1,1,616,32,,
Axcpt,130518,wave1,baseline,BY,1,1,1,331,33,lo,lo
Axcpt,130518,wave1,baseline,Ang,,,1,0,34,,
Axcpt,130518,wave1,baseline,BY,1,1,1,546,35,lo,lo
Axcpt,130518,wave1,baseline,AX,2,2,1,457,36,,
Axcpt,130518,wave1,baseline,AX,2,2,1,331,37,,
Axcpt,130518,wave1,baseline,BY,1,2,0,473,38,lo,lo
Axcpt,130518,wave1,baseline,AX,2,2,1,327,39,,
Axcpt,130518,wave1,baseline,AX,2,2,1,364,40,,
Axcpt,130518,wave1,baseline,Ang,,,1,0,41,,
Axcpt,130518,wave1,baseline,BY,1,1,1,486,42,lo,lo
Axcpt,130518,wave1,baseline,AX,2,2,1,552,43,,
Axcpt,130518,wave1,baseline,BX,1,1,1,727,44,hi,hi
Axcpt,130518,wave1,baseline,BY,1,1,1,449,45,lo,lo
Axcpt,130518,wave1,baseline,AX,2,2,1,461,46,,
Axcpt,130518,wave1,baseline,AY,1,1,1,470,47,,
Axcpt,130518,wave1,baseline,Bng,,1,0,385,48,,
Axcpt,130518,wave1,baseline,BY,1,1,1,405,49,lo,lo
Axcpt,130518,wave1,baseline,AX,2,2,1,334,50,,
Axcpt,130518,wave1,baseline,BY,1,1,1,511,51,lo,lo
Axcpt,130518,wave1,baseline,Bng,,,1,0,52,,
Axcpt,130518,wave1,baseline,AY,1,1,1,527,53,,
Axcpt,130518,wave1,baseline,Ang,,,1,0,54,,
Axcpt,130518,wave1,baseline,BY,1,1,1,616,55,lo,lo
Axcpt,130518,wave1,baseline,AX,2,2,1,624,56,,
Axcpt,130518,wave1,baseline,AX,2,2,1,301,57,,
Axcpt,130518,wave1,baseline,Bng,,,1,0,58,,
Axcpt,130518,wave1,baseline,AX,2,2,1,554,59,,
Axcpt,130518,wave1,baseline,AX,2,2,1,465,60,,
Axcpt,130518,wave1,baseline,BY,1,1,1,455,61,lo,lo
Axcpt,130518,wave1,baseline,BX,1,1,1,706,62,hi,hi
Axcpt,130518,wave1,baseline,Ang,,,1,0,63,,
Axcpt,130518,wave1,baseline,BY,1,1,1,471,64,lo,lo
Axcpt,130518,wave1,baseline,AY,1,1,1,604,65,,
Axcpt,130518,wave1,baseline,BX,1,1,1,641,66,hi,hi
Axcpt,130518,wave1,baseline,AX,2,2,1,332,67,,
Axcpt,130518,wave1,baseline,BY,1,1,1,394,68,lo,lo
Axcpt,130518,wave1,baseline,BY,1,1,1,355,69,lo,lo
Axcpt,130518,wave1,baseline,AX,2,2,1,452,70,,
Axcpt,130518,wave1,baseline,AX,2,2,1,296,71,,
Axcpt,130518,wave1,baseline,BY,1,1,1,395,72,lo,lo
Axcpt,130518,wave1,baseline,Bng,,,1,0,73,,
Axcpt,130518,wave1,baseline,AY,1,1,1,446,74,,
Axcpt,130518,wave1,baseline,BY,1,1,1,352,75,lo,lo
Axcpt,130518,wave1,baseline,AX,2,2,1,291,76,,
Axcpt,130518,wave1,baseline,AX,2,2,1,334,77,,
Axcpt,130518,wave1,baseline,BY,1,1,1,397,78,lo,lo
Axcpt,130518,wave1,baseline,BY,1,1,1,701,79,lo,lo
Axcpt,130518,wave1,baseline,AX,2,2,1,317,80,,
Axcpt,130518,wave1,baseline,AY,1,1,1,461,81,,
Axcpt,130518,wave1,baseline,AX,2,2,1,338,82,,
Axcpt,130518,wave1,baseline,Ang,,,1,0,83,,
Axcpt,130518,wave1,baseline,BY,1,1,1,420,84,lo,lo
Axcpt,130518,wave1,baseline,BX,1,2,0,748,85,hi,hi
Axcpt,130518,wave1,baseline,AX,2,2,1,389,86,,
Axcpt,130518,wave1,baseline,BY,1,1,1,427,87,lo,lo
Axcpt,130518,wave1,baseline,Ang,,,1,0,88,,
Axcpt,130518,wave1,baseline,BY,1,1,1,509,89,lo,lo
Axcpt,130518,wave1,baseline,BX,1,1,1,411,90,hi,hi
Axcpt,130518,wave1,baseline,BY,1,1,1,400,91,lo,lo
Axcpt,130518,wave1,baseline,AX,2,2,1,302,92,,
Axcpt,130518,wave1,baseline,AX,2,2,1,337,93,,
Axcpt,130518,wave1,baseline,AX,2,2,1,314,94,,
Axcpt,130518,wave1,baseline,BY,1,1,1,464,95,lo,lo
Axcpt,130518,wave1,baseline,Bng,,,1,0,96,,
Axcpt,130518,wave1,baseline,BY,1,1,1,579,97,lo,lo
Axcpt,130518,wave1,baseline,AX,2,2,1,356,98,,
Axcpt,130518,wave1,baseline,BY,1,1,1,448,99,lo,lo
Axcpt,130518,wave1,baseline,AX,2,2,1,347,100,,
Axcpt,130518,wave1,baseline,AX,2,2,1,319,101,,
Axcpt,130518,wave1,baseline,AX,2,2,1,347,102,,
Axcpt,130518,wave1,baseline,AX,2,2,1,371,103,,
Axcpt,130518,wave1,baseline,AX,2,2,1,382,104,,
Axcpt,130518,wave1,baseline,AY,1,1,1,592,105,,
Axcpt,130518,wave1,baseline,BY,1,1,1,344,106,lo,lo
Axcpt,130518,wave1,baseline,BX,1,1,1,378,107,hi,hi
Axcpt,130518,wave1,baseline,BY,1,1,1,338,108,lo,lo
Axcpt,130518,wave1,baseline,AX,2,2,1,338,109,,
Axcpt,130518,wave1,baseline,BY,1,1,1,330,110,lo,lo
Axcpt,130518,wave1,baseline,Ang,,,1,0,111,,
Axcpt,130518,wave1,baseline,AX,2,2,1,356,112,,
Axcpt,130518,wave1,baseline,Bng,,,1,0,113,,
Axcpt,130518,wave1,baseline,AY,1,1,1,808,114,,
Axcpt,130518,wave1,baseline,BX,1,1,1,648,115,hi,hi
Axcpt,130518,wave1,baseline,BY,1,1,1,312,116,lo,lo
Axcpt,130518,wave1,baseline,Bng,,,1,0,117,,
Axcpt,130518,wave1,baseline,BY,1,1,1,427,118,lo,lo
Axcpt,130518,wave1,baseline,Ang,,,1,0,119,,
Axcpt,130518,wave1,baseline,BY,1,1,1,438,120,lo,lo
Axcpt,130518,wave1,baseline,BY,1,1,1,464,121,lo,lo
Axcpt,130518,wave1,baseline,AX,2,2,1,332,122,,
Axcpt,130518,wave1,baseline,Ang,,,1,0,123,,
Axcpt,130518,wave1,baseline,Ang,,,1,0,124,,
Axcpt,130518,wave1,baseline,AX,2,2,1,372,125,,
Axcpt,130518,wave1,baseline,BY,1,1,1,438,126,lo,lo
Axcpt,130518,wave1,baseline,Bng,,1,0,397,127,,
Axcpt,130518,wave1,baseline,AX,2,1,0,1130,128,,
Axcpt,130518,wave1,baseline,BY,1,1,1,573,129,lo,lo
Axcpt,130518,wave1,baseline,AX,2,2,1,346,130,,
Axcpt,130518,wave1,baseline,AY,1,1,1,721,131,,
Axcpt,130518,wave1,baseline,BY,1,1,1,358,132,lo,lo
Axcpt,130518,wave1,baseline,BX,1,1,1,567,133,hi,hi
Axcpt,130518,wave1,baseline,BY,1,1,1,401,134,lo,lo
Axcpt,130518,wave1,baseline,Bng,,,1,0,135,,
Axcpt,130518,wave1,baseline,AX,2,2,1,384,136,,
Axcpt,130518,wave1,baseline,BY,1,1,1,470,137,lo,lo
Axcpt,130518,wave1,baseline,BY,1,1,1,551,138,lo,lo
Axcpt,130518,wave1,baseline,AX,2,2,1,414,139,,
Axcpt,130518,wave1,baseline,BY,1,1,1,542,140,lo,lo
Axcpt,130518,wave1,baseline,AY,1,1,1,550,141,,
Axcpt,130518,wave1,baseline,BX,1,1,1,780,142,hi,hi
Axcpt,130518,wave1,baseline,AX,2,2,1,331,143,,
Axcpt,130518,wave1,baseline,AX,2,2,1,556,144,,
Axcpt,130518,wave1,proactive,BX,1,2,0,888,1,hi,hi
Axcpt,130518,wave1,proactive,Bng,,,1,0,2,,
Axcpt,130518,wave1,proactive,AX,2,2,1,384,3,,
Axcpt,130518,wave1,proactive,AX,2,2,1,304,4,,
Axcpt,130518,wave1,proactive,BY,1,1,1,366,5,lo,lo
Axcpt,130518,wave1,proactive,Bng,,,1,0,6,,
Axcpt,130518,wave1,proactive,BY,1,1,1,405,7,lo,lo
Axcpt,130518,wave1,proactive,AX,2,2,1,260,8,,
Axcpt,130518,wave1,proactive,AX,2,2,1,526,9,,
Axcpt,130518,wave1,proactive,BX,1,1,1,320,10,hi,hi
Axcpt,130518,wave1,proactive,Ang,,,1,0,11,,
Axcpt,130518,wave1,proactive,AX,2,2,1,216,12,,
Axcpt,130518,wave1,proactive,Ang,,,1,0,13,,
Axcpt,130518,wave1,proactive,AX,2,2,1,297,14,,
Axcpt,130518,wave1,proactive,AY,1,2,0,322,15,,
Axcpt,130518,wave1,proactive,BY,1,1,1,318,16,lo,lo
Axcpt,130518,wave1,proactive,AY,1,1,1,438,17,,
Axcpt,130518,wave1,proactive,AX,2,2,1,759,18,,
Axcpt,130518,wave1,proactive,BY,1,1,1,365,19,lo,lo
Axcpt,130518,wave1,proactive,AX,2,2,1,342,20,,
Axcpt,130518,wave1,proactive,BY,1,1,1,360,21,lo,lo
Axcpt,130518,wave1,proactive,BY,1,1,1,478,22,lo,lo
Axcpt,130518,wave1,proactive,BY,1,1,1,428,23,lo,lo
Axcpt,130518,wave1,proactive,BY,1,1,1,398,24,lo,lo
Axcpt,130518,wave1,proactive,BY,1,1,1,340,25,lo,lo
Axcpt,130518,wave1,proactive,AX,2,,0,0,26,,
Axcpt,130518,wave1,proactive,AX,2,2,1,204,27,,
Axcpt,130518,wave1,proactive,BY,1,1,1,342,28,lo,lo
Axcpt,130518,wave1,proactive,AY,1,1,1,526,29,,
Axcpt,130518,wave1,proactive,AX,2,2,1,348,30,,
Axcpt,130518,wave1,proactive,BY,1,1,1,338,31,lo,lo
Axcpt,130518,wave1,proactive,BY,1,1,1,325,32,lo,lo
Axcpt,130518,wave1,proactive,AX,2,2,1,289,33,,
Axcpt,130518,wave1,proactive,BY,1,1,1,338,34,lo,lo
Axcpt,130518,wave1,proactive,AX,2,2,1,216,35,,
Axcpt,130518,wave1,proactive,Bng,,1,0,361,36,,
Axcpt,130518,wave1,proactive,BY,1,1,1,397,37,lo,lo
Axcpt,130518,wave1,proactive,BX,1,1,1,390,38,hi,hi
Axcpt,130518,wave1,proactive,BX,1,1,1,377,39,hi,hi
Axcpt,130518,wave1,proactive,AX,2,2,1,510,40,,
Axcpt,130518,wave1,proactive,BY,1,1,1,345,41,lo,lo
Axcpt,130518,wave1,proactive,Bng,,,1,0,42,,
Axcpt,130518,wave1,proactive,AX,2,2,1,304,43,,
Axcpt,130518,wave1,proactive,Ang,,,1,0,44,,
Axcpt,130518,wave1,proactive,AX,2,2,1,340,45,,
Axcpt,130518,wave1,proactive,Ang,,,1,0,46,,
Axcpt,130518,wave1,proactive,AY,1,1,1,655,47,,
Axcpt,130518,wave1,proactive,BY,1,1,1,974,48,lo,lo
Axcpt,130518,wave1,proactive,AX,2,2,1,295,49,,
Axcpt,130518,wave1,proactive,BY,1,1,1,357,50,lo,lo
Axcpt,130518,wave1,proactive,BY,1,1,1,364,51,lo,lo
Axcpt,130518,wave1,proactive,AX,2,2,1,335,52,,
Axcpt,130518,wave1,proactive,Bng,,,1,0,53,,
Axcpt,130518,wave1,proactive,Ang,,,1,0,54,,
Axcpt,130518,wave1,proactive,Bng,,,1,0,55,,
Axcpt,130518,wave1,proactive,BY,1,1,1,364,56,lo,lo
Axcpt,130518,wave1,proactive,AX,2,2,1,352,57,,
Axcpt,130518,wave1,proactive,BX,1,1,1,380,58,hi,hi
Axcpt,130518,wave1,proactive,AX,2,2,1,359,59,,
Axcpt,130518,wave1,proactive,BY,1,1,1,463,60,lo,lo
Axcpt,130518,wave1,proactive,BY,1,1,1,363,61,lo,lo
Axcpt,130518,wave1,proactive,BY,1,1,1,322,62,lo,lo
Axcpt,130518,wave1,proactive,AX,2,,0,0,63,,
Axcpt,130518,wave1,proactive,Ang,,,1,0,64,,
Axcpt,130518,wave1,proactive,BY,1,1,1,437,65,lo,lo
Axcpt,130518,wave1,proactive,AX,2,2,1,387,66,,
Axcpt,130518,wave1,proactive,BY,1,1,1,327,67,lo,lo
Axcpt,130518,wave1,proactive,BX,1,1,1,304,68,hi,hi
Axcpt,130518,wave1,proactive,AX,2,2,1,372,69,,
Axcpt,130518,wave1,proactive,AX,2,2,1,276,70,,
Axcpt,130518,wave1,proactive,AY,1,1,1,650,71,,
Axcpt,130518,wave1,proactive,AY,1,2,0,284,72,,
Axcpt,130518,wave1,proactive,Bng,,,1,0,73,,
Axcpt,130518,wave1,proactive,BY,1,1,1,375,74,lo,lo
Axcpt,130518,wave1,proactive,BY,1,1,1,333,75,lo,lo
Axcpt,130518,wave1,proactive,BY,1,1,1,438,76,lo,lo
Axcpt,130518,wave1,proactive,Ang,,,1,0,77,,
Axcpt,130518,wave1,proactive,AX,2,2,1,306,78,,
Axcpt,130518,wave1,proactive,AX,2,2,1,315,79,,
Axcpt,130518,wave1,proactive,AX,2,2,1,313,80,,
Axcpt,130518,wave1,proactive,AX,2,2,1,328,81,,
Axcpt,130518,wave1,proactive,AX,2,2,1,341,82,,
Axcpt,130518,wave1,proactive,BX,1,1,1,427,83,hi,hi
Axcpt,130518,wave1,proactive,AX,2,2,1,331,84,,
Axcpt,130518,wave1,proactive,AX,2,2,1,322,85,,
Axcpt,130518,wave1,proactive,Ang,,,1,0,86,,
Axcpt,130518,wave1,proactive,AX,2,2,1,438,87,,
Axcpt,130518,wave1,proactive,AY,1,1,1,514,88,,
Axcpt,130518,wave1,proactive,Bng,,,1,0,89,,
Axcpt,130518,wave1,proactive,BX,1,1,1,349,90,hi,hi
Axcpt,130518,wave1,proactive,BY,1,1,1,358,91,lo,lo
Axcpt,130518,wave1,proactive,BY,1,1,1,356,92,lo,lo
Axcpt,130518,wave1,proactive,AY,1,2,0,215,93,,
Axcpt,130518,wave1,proactive,BY,1,1,1,463,94,lo,lo
Axcpt,130518,wave1,proactive,BY,1,1,1,341,95,lo,lo
Axcpt,130518,wave1,proactive,BY,1,1,1,348,96,lo,lo
Axcpt,130518,wave1,proactive,BX,1,1,1,524,97,hi,hi
Axcpt,130518,wave1,proactive,AX,2,2,1,327,98,,
Axcpt,130518,wave1,proactive,BY,1,1,1,459,99,lo,lo
Axcpt,130518,wave1,proactive,AX,2,2,1,320,100,,
Axcpt,130518,wave1,proactive,BX,1,1,1,422,101,hi,hi
Axcpt,130518,wave1,proactive,BY,1,1,1,302,102,lo,lo
Axcpt,130518,wave1,proactive,Ang,,,1,0,103,,
Axcpt,130518,wave1,proactive,BY,1,1,1,270,104,lo,lo
Axcpt,130518,wave1,proactive,AX,2,2,1,406,105,,
Axcpt,130518,wave1,proactive,BY,1,1,1,387,106,lo,lo
Axcpt,130518,wave1,proactive,BY,1,1,1,287,107,lo,lo
Axcpt,130518,wave1,proactive,AX,2,2,1,381,108,,
Axcpt,130518,wave1,proactive,AX,2,2,1,307,109,,
Axcpt,130518,wave1,proactive,BY,1,1,1,357,110,lo,lo
Axcpt,130518,wave1,proactive,Bng,,1,0,274,111,,
Axcpt,130518,wave1,proactive,AY,1,1,1,661,112,,
Axcpt,130518,wave1,proactive,Bng,,,1,0,113,,
Axcpt,130518,wave1,proactive,BY,1,1,1,375,114,lo,lo
Axcpt,130518,wave1,proactive,AX,2,2,1,313,115,,
Axcpt,130518,wave1,proactive,AY,1,1,1,528,116,,
Axcpt,130518,wave1,proactive,AX,2,2,1,461,117,,
Axcpt,130518,wave1,proactive,AX,2,2,1,562,118,,
Axcpt,130518,wave1,proactive,BY,1,1,1,516,119,lo,lo
Axcpt,130518,wave1,proactive,Ang,,,1,0,120,,
Axcpt,130518,wave1,proactive,Bng,,,1,0,121,,
Axcpt,130518,wave1,proactive,BX,1,1,1,654,122,hi,hi
Axcpt,130518,wave1,proactive,AX,2,2,1,387,123,,
Axcpt,130518,wave1,proactive,AY,1,1,1,608,124,,
Axcpt,130518,wave1,proactive,AX,2,2,1,492,125,,
Axcpt,130518,wave1,proactive,AY,1,1,1,597,126,,
Axcpt,130518,wave1,proactive,BY,1,1,1,521,127,lo,lo
Axcpt,130518,wave1,proactive,AX,2,2,1,282,128,,
Axcpt,130518,wave1,proactive,Ang,,,1,0,129,,
Axcpt,130518,wave1,proactive,BY,1,1,1,522,130,lo,lo
Axcpt,130518,wave1,proactive,AX,2,2,1,253,131,,
Axcpt,130518,wave1,proactive,BY,1,1,1,329,132,lo,lo
Axcpt,130518,wave1,proactive,BY,1,1,1,415,133,lo,lo
Axcpt,130518,wave1,proactive,BY,1,1,1,392,134,lo,lo
Axcpt,130518,wave1,proactive,AX,2,2,1,396,135,,
Axcpt,130518,wave1,proactive,Bng,,,1,0,136,,
Axcpt,130518,wave1,proactive,BY,1,1,1,729,137,lo,lo
Axcpt,130518,wave1,proactive,BY,1,1,1,382,138,lo,lo
Axcpt,130518,wave1,proactive,Ang,,,1,0,139,,
Axcpt,130518,wave1,proactive,BY,1,1,1,420,140,lo,lo
Axcpt,130518,wave1,proactive,AX,2,2,1,363,141,,
Axcpt,130518,wave1,proactive,AX,2,1,0,956,142,,
Axcpt,130518,wave1,proactive,AX,2,2,1,368,143,,
Axcpt,130518,wave1,proactive,BX,1,1,1,286,144,hi,hi
Axcpt,130518,wave1,reactive,BX,1,1,1,1023,1,hi,hi
Axcpt,130518,wave1,reactive,BX,1,1,1,530,2,hi,hi
Axcpt,130518,wave1,reactive,Ang,,,1,0,3,,
Axcpt,130518,wave1,reactive,AX,2,2,1,369,4,,
Axcpt,130518,wave1,reactive,AX,2,2,1,320,5,,
Axcpt,130518,wave1,reactive,AX,2,2,1,344,6,,
Axcpt,130518,wave1,reactive,BY,1,1,1,764,7,lo,lo
Axcpt,130518,wave1,reactive,Ang,,,1,0,8,,
Axcpt,130518,wave1,reactive,AX,2,2,1,289,9,,
Axcpt,130518,wave1,reactive,Bng,,,1,0,10,,
Axcpt,130518,wave1,reactive,BY,1,1,1,486,11,lo,lo
Axcpt,130518,wave1,reactive,AX,2,2,1,361,12,,
Axcpt,130518,wave1,reactive,BY,1,1,1,536,13,lo,lo
Axcpt,130518,wave1,reactive,AX,2,2,1,391,14,,
Axcpt,130518,wave1,reactive,AY,1,1,1,569,15,,
Axcpt,130518,wave1,reactive,AX,2,2,1,383,16,,
Axcpt,130518,wave1,reactive,BY,1,1,1,611,17,lo,lo
Axcpt,130518,wave1,reactive,AX,2,2,1,477,18,,
Axcpt,130518,wave1,reactive,BY,1,1,1,654,19,lo,lo
Axcpt,130518,wave1,reactive,BY,1,1,1,432,20,lo,lo
Axcpt,130518,wave1,reactive,Bng,,,1,0,21,,
Axcpt,130518,wave1,reactive,AY,1,1,1,528,22,,
Axcpt,130518,wave1,reactive,BY,1,1,1,426,23,lo,lo
Axcpt,130518,wave1,reactive,BY,1,1,1,403,24,lo,lo
Axcpt,130518,wave1,reactive,Ang,,,1,0,25,,
Axcpt,130518,wave1,reactive,BY,1,1,1,424,26,lo,lo
Axcpt,130518,wave1,reactive,BY,1,1,1,541,27,lo,lo
Axcpt,130518,wave1,reactive,BY,1,1,1,512,28,lo,lo
Axcpt,130518,wave1,reactive,Bng,,,1,0,29,,
Axcpt,130518,wave1,reactive,BY,1,1,1,440,30,lo,lo
Axcpt,130518,wave1,reactive,AX,2,2,1,380,31,,
Axcpt,130518,wave1,reactive,BY,1,1,1,416,32,lo,lo
Axcpt,130518,wave1,reactive,AY,1,1,1,567,33,,
Axcpt,130518,wave1,reactive,AX,2,2,1,435,34,,
Axcpt,130518,wave1,reactive,BY,1,1,1,415,35,lo,lo
Axcpt,130518,wave1,reactive,AX,2,2,1,419,36,,
Axcpt,130518,wave1,reactive,AX,2,2,1,275,37,,
Axcpt,130518,wave1,reactive,AY,1,1,1,477,38,,
Axcpt,130518,wave1,reactive,Bng,,,1,0,39,,
Axcpt,130518,wave1,reactive,AX,2,2,1,368,40,,
Axcpt,130518,wave1,reactive,BY,1,1,1,278,41,lo,lo
Axcpt,130518,wave1,reactive,AX,2,2,1,499,42,,
Axcpt,130518,wave1,reactive,AX,2,2,1,287,43,,
Axcpt,130518,wave1,reactive,BY,1,1,1,424,44,lo,lo
Axcpt,130518,wave1,reactive,Ang,,,1,0,45,,
Axcpt,130518,wave1,reactive,AX,2,2,1,495,46,,
Axcpt,130518,wave1,reactive,BX,1,1,1,466,47,hi,hi
Axcpt,130518,wave1,reactive,BX,1,1,1,406,48,hi,hi
Axcpt,130518,wave1,reactive,BX,1,1,1,412,49,hi,hi
Axcpt,130518,wave1,reactive,AX,2,2,1,290,50,,
Axcpt,130518,wave1,reactive,BY,1,1,1,508,51,lo,lo
Axcpt,130518,wave1,reactive,AX,2,2,1,348,52,,
Axcpt,130518,wave1,reactive,Ang,,,1,0,53,,
Axcpt,130518,wave1,reactive,AY,1,1,1,588,54,,
Axcpt,130518,wave1,reactive,BY,1,1,1,411,55,lo,lo
Axcpt,130518,wave1,reactive,BY,1,1,1,529,56,lo,lo
Axcpt,130518,wave1,reactive,AX,2,2,1,399,57,,
Axcpt,130518,wave1,reactive,AX,2,2,1,412,58,,
Axcpt,130518,wave1,reactive,Bng,,1,0,865,59,,
Axcpt,130518,wave1,reactive,BY,1,1,1,515,60,lo,lo
Axcpt,130518,wave1,reactive,BY,1,1,1,446,61,lo,lo
Axcpt,130518,wave1,reactive,BY,1,1,1,552,62,lo,lo
Axcpt,130518,wave1,reactive,BX,1,1,1,807,63,hi,hi
Axcpt,130518,wave1,reactive,Bng,,,1,0,64,,
Axcpt,130518,wave1,reactive,AX,2,2,1,305,65,,
Axcpt,130518,wave1,reactive,AY,1,1,1,549,66,,
Axcpt,130518,wave1,reactive,Ang,,,1,0,67,,
Axcpt,130518,wave1,reactive,AX,2,2,1,432,68,,
Axcpt,130518,wave1,reactive,BY,1,,0,0,69,lo,lo
Axcpt,130518,wave1,reactive,BY,1,1,1,485,70,lo,lo
Axcpt,130518,wave1,reactive,AX,2,2,1,275,71,,
Axcpt,130518,wave1,reactive,AX,2,2,1,291,72,,
Axcpt,130518,wave1,reactive,Ang,,,1,0,73,,
Axcpt,130518,wave1,reactive,AX,2,2,1,306,74,,
Axcpt,130518,wave1,reactive,BY,1,1,1,325,75,lo,lo
Axcpt,130518,wave1,reactive,AX,2,2,1,320,76,,
Axcpt,130518,wave1,reactive,AX,2,2,1,264,77,,
Axcpt,130518,wave1,reactive,BX,1,1,1,415,78,hi,hi
Axcpt,130518,wave1,reactive,AX,2,2,1,263,79,,
Axcpt,130518,wave1,reactive,AX,2,2,1,247,80,,
Axcpt,130518,wave1,reactive,BX,1,1,1,392,81,hi,hi
Axcpt,130518,wave1,reactive,AY,1,1,1,403,82,,
Axcpt,130518,wave1,reactive,AX,2,2,1,333,83,,
Axcpt,130518,wave1,reactive,AX,2,2,1,273,84,,
Axcpt,130518,wave1,reactive,Bng,,,1,0,85,,
Axcpt,130518,wave1,reactive,AY,1,1,1,749,86,,
Axcpt,130518,wave1,reactive,BY,1,1,1,482,87,lo,lo
Axcpt,130518,wave1,reactive,Bng,,,1,0,88,,
Axcpt,130518,wave1,reactive,BY,1,1,1,407,89,lo,lo
Axcpt,130518,wave1,reactive,BY,1,1,1,505,90,lo,lo
Axcpt,130518,wave1,reactive,BY,1,1,1,406,91,lo,lo
Axcpt,130518,wave1,reactive,Ang,,,1,0,92,,
Axcpt,130518,wave1,reactive,BY,1,1,1,339,93,lo,lo
Axcpt,130518,wave1,reactive,BY,1,1,1,279,94,lo,lo
Axcpt,130518,wave1,reactive,AX,2,2,1,364,95,,
Axcpt,130518,wave1,reactive,BY,1,1,1,379,96,lo,lo
Axcpt,130518,wave1,reactive,Ang,,,1,0,97,,
Axcpt,130518,wave1,reactive,BY,1,1,1,456,98,lo,lo
Axcpt,130518,wave1,reactive,AX,2,2,1,363,99,,
Axcpt,130518,wave1,reactive,Bng,,,1,0,100,,
Axcpt,130518,wave1,reactive,AX,2,2,1,355,101,,
Axcpt,130518,wave1,reactive,AX,2,2,1,398,102,,
Axcpt,130518,wave1,reactive,AX,2,2,1,366,103,,
Axcpt,130518,wave1,reactive,BY,1,1,1,468,104,lo,lo
Axcpt,130518,wave1,reactive,BY,1,1,1,364,105,lo,lo
Axcpt,130518,wave1,reactive,BY,1,1,1,318,106,lo,lo
Axcpt,130518,wave1,reactive,AY,1,1,1,528,107,,
Axcpt,130518,wave1,reactive,AX,2,2,1,316,108,,
Axcpt,130518,wave1,reactive,AX,2,2,1,360,109,,
Axcpt,130518,wave1,reactive,AY,1,1,1,594,110,,
Axcpt,130518,wave1,reactive,AX,2,2,1,505,111,,
Axcpt,130518,wave1,reactive,BY,1,1,1,384,112,lo,lo
Axcpt,130518,wave1,reactive,Ang,,,1,0,113,,
Axcpt,130518,wave1,reactive,BY,1,1,1,428,114,lo,lo
Axcpt,130518,wave1,reactive,BY,1,1,1,817,115,lo,lo
Axcpt,130518,wave1,reactive,BX,1,1,1,794,116,hi,hi
Axcpt,130518,wave1,reactive,Bng,,,1,0,117,,
Axcpt,130518,wave1,reactive,BX,1,1,1,497,118,hi,hi
Axcpt,130518,wave1,reactive,AX,2,2,1,293,119,,
Axcpt,130518,wave1,reactive,BY,1,1,1,455,120,lo,lo
Axcpt,130518,wave1,reactive,AY,1,1,1,591,121,,
Axcpt,130518,wave1,reactive,Ang,,,1,0,122,,
Axcpt,130518,wave1,reactive,AY,1,1,1,492,123,,
Axcpt,130518,wave1,reactive,BX,1,1,1,419,124,hi,hi
Axcpt,130518,wave1,reactive,AX,2,2,1,278,125,,
Axcpt,130518,wave1,reactive,Bng,,,1,0,126,,
Axcpt,130518,wave1,reactive,AX,2,2,1,386,127,,
Axcpt,130518,wave1,reactive,BY,1,1,1,462,128,lo,lo
Axcpt,130518,wave1,reactive,BY,1,1,1,333,129,lo,lo
Axcpt,130518,wave1,reactive,BY,1,1,1,643,130,lo,lo
Axcpt,130518,wave1,reactive,Bng,,,1,0,131,,
Axcpt,130518,wave1,reactive,AX,2,2,1,253,132,,
Axcpt,130518,wave1,reactive,BY,1,1,1,418,133,lo,lo
Axcpt,130518,wave1,reactive,BX,1,1,1,510,134,hi,hi
Axcpt,130518,wave1,reactive,BY,1,1,1,829,135,lo,lo
Axcpt,130518,wave1,reactive,BY,1,1,1,358,136,lo,lo
Axcpt,130518,wave1,reactive,BY,1,1,1,510,137,lo,lo
Axcpt,130518,wave1,reactive,AX,2,2,1,326,138,,
Axcpt,130518,wave1,reactive,AX,2,2,1,380,139,,
Axcpt,130518,wave1,reactive,AX,2,2,1,404,140,,
Axcpt,130518,wave1,reactive,BY,1,1,1,451,141,lo,lo
Axcpt,130518,wave1,reactive,Ang,,,1,0,142,,
Axcpt,130518,wave1,reactive,AX,2,2,1,308,143,,
Axcpt,130518,wave1,reactive,AX,2,2,1,378,144,,
Axcpt,130518,wave2,baseline,AX,2,2,1,487,1,,
Axcpt,130518,wave2,baseline,AX,2,2,1,403,2,,
Axcpt,130518,wave2,baseline,AX,2,2,1,287,3,,
Axcpt,130518,wave2,baseline,BY,1,1,1,352,4,lo,lo
Axcpt,130518,wave2,baseline,AX,2,2,1,328,5,,
Axcpt,130518,wave2,baseline,BY,1,1,1,655,6,lo,lo
Axcpt,130518,wave2,baseline,Bng,,,1,0,7,,
Axcpt,130518,wave2,baseline,BY,1,1,1,514,8,lo,lo
Axcpt,130518,wave2,baseline,BX,1,1,1,584,9,hi,hi
Axcpt,130518,wave2,baseline,BY,1,1,1,418,10,lo,lo
Axcpt,130518,wave2,baseline,AX,2,2,1,383,11,,
Axcpt,130518,wave2,baseline,AY,1,1,1,430,12,,
Axcpt,130518,wave2,baseline,AX,2,2,1,395,13,,
Axcpt,130518,wave2,baseline,BY,1,1,1,493,14,lo,lo
Axcpt,130518,wave2,baseline,Ang,,,1,0,15,,
Axcpt,130518,wave2,baseline,AX,2,2,1,334,16,,
Axcpt,130518,wave2,baseline,AX,2,2,1,376,17,,
Axcpt,130518,wave2,baseline,Bng,,,1,0,18,,
Axcpt,130518,wave2,baseline,BY,1,1,1,406,19,lo,lo
Axcpt,130518,wave2,baseline,BY,1,1,1,342,20,lo,lo
Axcpt,130518,wave2,baseline,AY,1,1,1,534,21,,
Axcpt,130518,wave2,baseline,BX,1,1,1,402,22,hi,hi
Axcpt,130518,wave2,baseline,BY,1,1,1,436,23,lo,lo
Axcpt,130518,wave2,baseline,Ang,,,1,0,24,,
Axcpt,130518,wave2,baseline,Ang,,,1,0,25,,
Axcpt,130518,wave2,baseline,BX,1,1,1,414,26,hi,hi
Axcpt,130518,wave2,baseline,Ang,,,1,0,27,,
Axcpt,130518,wave2,baseline,BY,1,1,1,401,28,lo,lo
Axcpt,130518,wave2,baseline,AX,2,2,1,421,29,,
Axcpt,130518,wave2,baseline,BY,1,1,1,460,30,lo,lo
Axcpt,130518,wave2,baseline,AX,2,2,1,491,31,,
Axcpt,130518,wave2,baseline,AX,2,2,1,331,32,,
Axcpt,130518,wave2,baseline,AY,1,1,1,698,33,,
Axcpt,130518,wave2,baseline,BY,1,1,1,491,34,lo,lo
Axcpt,130518,wave2,baseline,AY,1,1,1,642,35,,
Axcpt,130518,wave2,baseline,BX,1,1,1,728,36,hi,hi
Axcpt,130518,wave2,baseline,Bng,,,1,0,37,,
Axcpt,130518,wave2,baseline,AX,2,2,1,373,38,,
Axcpt,130518,wave2,baseline,BY,1,1,1,384,39,lo,lo
Axcpt,130518,wave2,baseline,BY,1,1,1,484,40,lo,lo
Axcpt,130518,wave2,baseline,BY,1,1,1,338,41,lo,lo
Axcpt,130518,wave2,baseline,AX,2,2,1,309,42,,
Axcpt,130518,wave2,baseline,BY,1,1,1,368,43,lo,lo
Axcpt,130518,wave2,baseline,Bng,,,1,0,44,,
Axcpt,130518,wave2,baseline,BY,1,1,1,441,45,lo,lo
Axcpt,130518,wave2,baseline,AX,2,2,1,752,46,,
Axcpt,130518,wave2,baseline,AX,2,2,1,296,47,,
Axcpt,130518,wave2,baseline,AX,2,2,1,262,48,,
Axcpt,130518,wave2,baseline,Bng,,,1,0,49,,
Axcpt,130518,wave2,baseline,BY,1,1,1,346,50,lo,lo
Axcpt,130518,wave2,baseline,BY,1,1,1,325,51,lo,lo
Axcpt,130518,wave2,baseline,Ang,,,1,0,52,,
Axcpt,130518,wave2,baseline,AX,2,2,1,397,53,,
Axcpt,130518,wave2,baseline,BY,1,1,1,393,54,lo,lo
Axcpt,130518,wave2,baseline,Bng,,,1,0,55,,
Axcpt,130518,wave2,baseline,Ang,,,1,0,56,,
Axcpt,130518,wave2,baseline,AX,2,2,1,417,57,,
Axcpt,130518,wave2,baseline,AX,2,2,1,424,58,,
Axcpt,130518,wave2,baseline,AX,2,2,1,304,59,,
Axcpt,130518,wave2,baseline,BX,1,1,1,383,60,hi,hi
Axcpt,130518,wave2,baseline,BY,1,1,1,581,61,lo,lo
Axcpt,130518,wave2,baseline,AX,2,2,1,346,62,,
Axcpt,130518,wave2,baseline,AX,2,2,1,274,63,,
Axcpt,130518,wave2,baseline,AY,1,1,1,465,64,,
Axcpt,130518,wave2,baseline,BY,1,1,1,442,65,lo,lo
Axcpt,130518,wave2,baseline,BY,1,1,1,285,66,lo,lo
Axcpt,130518,wave2,baseline,BY,1,1,1,292,67,lo,lo
Axcpt,130518,wave2,baseline,AX,2,2,1,315,68,,
Axcpt,130518,wave2,baseline,AY,1,1,1,497,69,,
Axcpt,130518,wave2,baseline,BX,1,2,0,347,70,hi,hi
Axcpt,130518,wave2,baseline,BY,1,1,1,336,71,lo,lo
Axcpt,130518,wave2,baseline,AX,2,2,1,468,72,,
Axcpt,130518,wave2,baseline,BX,1,1,1,446,73,hi,hi
Axcpt,130518,wave2,baseline,Ang,,,1,0,74,,
Axcpt,130518,wave2,baseline,BY,1,1,1,339,75,lo,lo
Axcpt,130518,wave2,baseline,BY,1,1,1,330,76,lo,lo
Axcpt,130518,wave2,baseline,BY,1,1,1,284,77,lo,lo
Axcpt,130518,wave2,baseline,BX,1,1,1,309,78,hi,hi
Axcpt,130518,wave2,baseline,BY,1,1,1,382,79,lo,lo
Axcpt,130518,wave2,baseline,AY,1,1,1,512,80,,
Axcpt,130518,wave2,baseline,AX,2,2,1,321,81,,
Axcpt,130518,wave2,baseline,AX,2,2,1,303,82,,
Axcpt,130518,wave2,baseline,BY,1,1,1,637,83,lo,lo
Axcpt,130518,wave2,baseline,AX,2,2,1,352,84,,
Axcpt,130518,wave2,baseline,AX,2,2,1,295,85,,
Axcpt,130518,wave2,baseline,BY,1,1,1,553,86,lo,lo
Axcpt,130518,wave2,baseline,AX,2,2,1,345,87,,
Axcpt,130518,wave2,baseline,AY,1,1,1,508,88,,
Axcpt,130518,wave2,baseline,Ang,,1,0,262,89,,
Axcpt,130518,wave2,baseline,Bng,,,1,0,90,,
Axcpt,130518,wave2,baseline,BY,1,1,1,519,91,lo,lo
Axcpt,130518,wave2,baseline,AX,2,2,1,455,92,,
Axcpt,130518,wave2,baseline,Bng,,,1,0,93,,
Axcpt,130518,wave2,baseline,BY,1,1,1,518,94,lo,lo
Axcpt,130518,wave2,baseline,AX,2,2,1,349,95,,
Axcpt,130518,wave2,baseline,AX,2,2,1,335,96,,
Axcpt,130518,wave2,baseline,AY,1,1,1,600,97,,
Axcpt,130518,wave2,baseline,AX,2,2,1,433,98,,
Axcpt,130518,wave2,baseline,BY,1,1,1,538,99,lo,lo
Axcpt,130518,wave2,baseline,Bng,,,1,0,100,,
Axcpt,130518,wave2,baseline,BY,1,1,1,372,101,lo,lo
Axcpt,130518,wave2,baseline,AX,2,2,1,471,102,,
Axcpt,130518,wave2,baseline,Ang,,,1,0,103,,
Axcpt,130518,wave2,baseline,AY,1,1,1,500,104,,
Axcpt,130518,wave2,baseline,AX,2,2,1,471,105,,
Axcpt,130518,wave2,baseline,Ang,,,1,0,106,,
Axcpt,130518,wave2,baseline,AX,2,2,1,516,107,,
Axcpt,130518,wave2,baseline,BY,1,1,1,289,108,lo,lo
Axcpt,130518,wave2,baseline,BY,1,1,1,391,109,lo,lo
Axcpt,130518,wave2,baseline,AX,2,2,1,399,110,,
Axcpt,130518,wave2,baseline,AX,2,2,1,308,111,,
Axcpt,130518,wave2,baseline,AX,2,2,1,470,112,,
Axcpt,130518,wave2,baseline,BY,1,1,1,373,113,lo,lo
Axcpt,130518,wave2,baseline,Bng,,,1,0,114,,
Axcpt,130518,wave2,baseline,BX,1,1,1,385,115,hi,hi
Axcpt,130518,wave2,baseline,BY,1,1,1,343,116,lo,lo
Axcpt,130518,wave2,baseline,AX,2,2,1,373,117,,
Axcpt,130518,wave2,baseline,BY,1,1,1,804,118,lo,lo
Axcpt,130518,wave2,baseline,BX,1,1,1,383,119,hi,hi
Axcpt,130518,wave2,baseline,BY,1,1,1,375,120,lo,lo
Axcpt,130518,wave2,baseline,AX,2,2,1,331,121,,
Axcpt,130518,wave2,baseline,BX,1,1,1,545,122,hi,hi
Axcpt,130518,wave2,baseline,BY,1,1,1,432,123,lo,lo
Axcpt,130518,wave2,baseline,AX,2,2,1,446,124,,
Axcpt,130518,wave2,baseline,AX,2,2,1,443,125,,
Axcpt,130518,wave2,baseline,BY,1,1,1,586,126,lo,lo
Axcpt,130518,wave2,baseline,BY,1,1,1,467,127,lo,lo
Axcpt,130518,wave2,baseline,Ang,,2,0,291,128,,
Axcpt,130518,wave2,baseline,AY,1,1,1,628,129,,
Axcpt,130518,wave2,baseline,AX,2,2,1,697,130,,
Axcpt,130518,wave2,baseline,BY,1,1,1,370,131,lo,lo
Axcpt,130518,wave2,baseline,Bng,,1,0,1183,132,,
Axcpt,130518,wave2,baseline,BX,1,,0,0,133,hi,hi
Axcpt,130518,wave2,baseline,BY,1,1,1,581,134,lo,lo
Axcpt,130518,wave2,baseline,AY,1,1,1,497,135,,
Axcpt,130518,wave2,baseline,Bng,,,1,0,136,,
Axcpt,130518,wave2,baseline,BY,1,1,1,356,137,lo,lo
Axcpt,130518,wave2,baseline,BY,1,1,1,576,138,lo,lo
Axcpt,130518,wave2,baseline,AX,2,2,1,529,139,,
Axcpt,130518,wave2,baseline,AX,2,2,1,399,140,,
Axcpt,130518,wave2,baseline,AX,2,2,1,379,141,,
Axcpt,130518,wave2,baseline,AX,2,2,1,501,142,,
Axcpt,130518,wave2,baseline,BY,1,1,1,453,143,lo,lo
Axcpt,130518,wave2,baseline,Ang,,,1,0,144,,
Axcpt,130518,wave2,proactive,BY,1,1,1,379,1,lo,lo
Axcpt,130518,wave2,proactive,BY,1,1,1,305,2,lo,lo
Axcpt,130518,wave2,proactive,AX,2,2,1,299,3,,
Axcpt,130518,wave2,proactive,AX,2,2,1,280,4,,
Axcpt,130518,wave2,proactive,BY,1,1,1,388,5,lo,lo
Axcpt,130518,wave2,proactive,Bng,,,1,0,6,,
Axcpt,130518,wave2,proactive,Ang,,,1,0,7,,
Axcpt,130518,wave2,proactive,BY,1,1,1,352,8,lo,lo
Axcpt,130518,wave2,proactive,AX,2,2,1,285,9,,
Axcpt,130518,wave2,proactive,AX,2,2,1,308,10,,
Axcpt,130518,wave2,proactive,BX,1,1,1,385,11,hi,hi
Axcpt,130518,wave2,proactive,AY,1,1,1,908,12,,
Axcpt,130518,wave2,proactive,AX,2,2,1,350,13,,
Axcpt,130518,wave2,proactive,BY,1,1,1,371,14,lo,lo
Axcpt,130518,wave2,proactive,BY,1,1,1,387,15,lo,lo
Axcpt,130518,wave2,proactive,AX,2,2,1,463,16,,
Axcpt,130518,wave2,proactive,BX,1,1,1,422,17,hi,hi
Axcpt,130518,wave2,proactive,BY,1,1,1,394,18,lo,lo
Axcpt,130518,wave2,proactive,BY,1,1,1,497,19,lo,lo
Axcpt,130518,wave2,proactive,AY,1,1,1,580,20,,
Axcpt,130518,wave2,proactive,AX,2,2,1,460,21,,
Axcpt,130518,wave2,proactive,Bng,,1,0,419,22,,
Axcpt,130518,wave2,proactive,AX,2,2,1,341,23,,
Axcpt,130518,wave2,proactive,Ang,,,1,0,24,,
Axcpt,130518,wave2,proactive,BY,1,1,1,447,25,lo,lo
Axcpt,130518,wave2,proactive,Bng,,,1,0,26,,
Axcpt,130518,wave2,proactive,BX,1,1,1,491,27,hi,hi
Axcpt,130518,wave2,proactive,BY,1,1,1,716,28,lo,lo
Axcpt,130518,wave2,proactive,AX,2,2,1,372,29,,
Axcpt,130518,wave2,proactive,BX,1,1,1,979,30,hi,hi
Axcpt,130518,wave2,proactive,AX,2,2,1,436,31,,
Axcpt,130518,wave2,proactive,BY,1,1,1,431,32,lo,lo
Axcpt,130518,wave2,proactive,BY,1,,0,0,33,lo,lo
Axcpt,130518,wave2,proactive,AY,1,1,1,578,34,,
Axcpt,130518,wave2,proactive,BY,1,1,1,454,35,lo,lo
Axcpt,130518,wave2,proactive,BY,1,1,1,583,36,lo,lo
Axcpt,130518,wave2,proactive,AX,2,1,0,791,37,,
Axcpt,130518,wave2,proactive,AX,2,2,1,312,38,,
Axcpt,130518,wave2,proactive,AX,2,1,0,637,39,,
Axcpt,130518,wave2,proactive,BY,1,1,1,402,40,lo,lo
Axcpt,130518,wave2,proactive,AX,2,2,1,388,41,,
Axcpt,130518,wave2,proactive,BY,1,,0,0,42,lo,lo
Axcpt,130518,wave2,proactive,Ang,,2,0,233,43,,
Axcpt,130518,wave2,proactive,AX,2,,0,0,44,,
Axcpt,130518,wave2,proactive,AX,2,,0,0,45,,
Axcpt,130518,wave2,proactive,Ang,,,1,0,46,,
Axcpt,130518,wave2,proactive,AY,1,1,1,370,47,,
Axcpt,130518,wave2,proactive,Bng,,,1,0,48,,
Axcpt,130518,wave2,proactive,BY,1,1,1,894,49,lo,lo
Axcpt,130518,wave2,proactive,AX,2,,0,0,50,,
Axcpt,130518,wave2,proactive,BY,1,1,1,493,51,lo,lo
Axcpt,130518,wave2,proactive,BX,1,1,1,399,52,hi,hi
Axcpt,130518,wave2,proactive,AX,2,2,1,359,53,,
Axcpt,130518,wave2,proactive,Bng,,1,0,616,54,,
Axcpt,130518,wave2,proactive,AX,2,2,1,465,55,,
Axcpt,130518,wave2,proactive,AX,2,2,1,606,56,,
Axcpt,130518,wave2,proactive,Bng,,,1,0,57,,
Axcpt,130518,wave2,proactive,BY,1,1,1,653,58,lo,lo
Axcpt,130518,wave2,proactive,AX,2,1,0,437,59,,
Axcpt,130518,wave2,proactive,AY,1,1,1,516,60,,
Axcpt,130518,wave2,proactive,BY,1,1,1,712,61,lo,lo
Axcpt,130518,wave2,proactive,AX,2,1,0,761,62,,
Axcpt,130518,wave2,proactive,BY,1,,0,0,63,lo,lo
Axcpt,130518,wave2,proactive,AY,1,1,1,996,64,,
Axcpt,130518,wave2,proactive,Ang,,,1,0,65,,
Axcpt,130518,wave2,proactive,AX,2,,0,0,66,,
Axcpt,130518,wave2,proactive,BY,1,1,1,645,67,lo,lo
Axcpt,130518,wave2,proactive,AX,2,1,0,373,68,,
Axcpt,130518,wave2,proactive,BX,1,1,1,547,69,hi,hi
Axcpt,130518,wave2,proactive,Ang,,,1,0,70,,
Axcpt,130518,wave2,proactive,BY,1,1,1,464,71,lo,lo
Axcpt,130518,wave2,proactive,BY,1,1,1,444,72,lo,lo
Axcpt,130518,wave2,proactive,BY,1,1,1,507,73,lo,lo
Axcpt,130518,wave2,proactive,BY,1,1,1,327,74,lo,lo
Axcpt,130518,wave2,proactive,Ang,,1,0,414,75,,
Axcpt,130518,wave2,proactive,AX,2,2,1,586,76,,
Axcpt,130518,wave2,proactive,AX,2,2,1,408,77,,
Axcpt,130518,wave2,proactive,AX,2,2,1,466,78,,
Axcpt,130518,wave2,proactive,BX,1,1,1,330,79,hi,hi
Axcpt,130518,wave2,proactive,Bng,,1,0,581,80,,
Axcpt,130518,wave2,proactive,BY,1,1,1,544,81,lo,lo
Axcpt,130518,wave2,proactive,AY,1,1,1,488,82,,
Axcpt,130518,wave2,proactive,BY,1,1,1,395,83,lo,lo
Axcpt,130518,wave2,proactive,AX,2,2,1,453,84,,
Axcpt,130518,wave2,proactive,AX,2,,0,0,85,,
Axcpt,130518,wave2,proactive,BY,1,,0,0,86,lo,lo
Axcpt,130518,wave2,proactive,Bng,,,1,0,87,,
Axcpt,130518,wave2,proactive,AX,2,1,0,488,88,,
Axcpt,130518,wave2,proactive,AY,1,1,1,521,89,,
Axcpt,130518,wave2,proactive,Ang,,,1,0,90,,
Axcpt,130518,wave2,proactive,AX,2,2,1,393,91,,
Axcpt,130518,wave2,proactive,BY,1,1,1,470,92,lo,lo
Axcpt,130518,wave2,proactive,BX,1,1,1,531,93,hi,hi
Axcpt,130518,wave2,proactive,BY,1,1,1,309,94,lo,lo
Axcpt,130518,wave2,proactive,AX,2,2,1,1302,95,,
Axcpt,130518,wave2,proactive,BY,1,1,1,439,96,lo,lo
Axcpt,130518,wave2,proactive,AX,2,2,1,313,97,,
Axcpt,130518,wave2,proactive,AX,2,2,1,291,98,,
Axcpt,130518,wave2,proactive,AX,2,2,1,293,99,,
Axcpt,130518,wave2,proactive,AX,2,1,0,471,100,,
Axcpt,130518,wave2,proactive,BY,1,1,1,495,101,lo,lo
Axcpt,130518,wave2,proactive,Bng,,,1,0,102,,
Axcpt,130518,wave2,proactive,AX,2,2,1,287,103,,
Axcpt,130518,wave2,proactive,Ang,,,1,0,104,,
Axcpt,130518,wave2,proactive,AX,2,2,1,340,105,,
Axcpt,130518,wave2,proactive,BY,1,1,1,564,106,lo,lo
Axcpt,130518,wave2,proactive,BX,1,1,1,469,107,hi,hi
Axcpt,130518,wave2,proactive,BY,1,1,1,437,108,lo,lo
Axcpt,130518,wave2,proactive,BY,1,1,1,296,109,lo,lo
Axcpt,130518,wave2,proactive,Bng,,,1,0,110,,
Axcpt,130518,wave2,proactive,AY,1,1,1,441,111,,
Axcpt,130518,wave2,proactive,BY,1,1,1,555,112,lo,lo
Axcpt,130518,wave2,proactive,AY,1,,0,0,113,,
Axcpt,130518,wave2,proactive,BX,1,2,0,372,114,hi,hi
Axcpt,130518,wave2,proactive,BY,1,1,1,429,115,lo,lo
Axcpt,130518,wave2,proactive,AX,2,1,0,318,116,,
Axcpt,130518,wave2,proactive,BY,1,1,1,1029,117,lo,lo
Axcpt,130518,wave2,proactive,AX,2,,0,0,118,,
Axcpt,130518,wave2,proactive,Ang,,,1,0,119,,
Axcpt,130518,wave2,proactive,BY,1,1,1,478,120,lo,lo
Axcpt,130518,wave2,proactive,BY,1,1,1,300,121,lo,lo
Axcpt,130518,wave2,proactive,AX,2,2,1,287,122,,
Axcpt,130518,wave2,proactive,BY,1,1,1,378,123,lo,lo
Axcpt,130518,wave2,proactive,AY,1,2,0,379,124,,
Axcpt,130518,wave2,proactive,AX,2,1,0,410,125,,
Axcpt,130518,wave2,proactive,Ang,,,1,0,126,,
Axcpt,130518,wave2,proactive,AY,1,1,1,488,127,,
Axcpt,130518,wave2,proactive,BY,1,1,1,373,128,lo,lo
Axcpt,130518,wave2,proactive,AX,2,2,1,386,129,,
Axcpt,130518,wave2,proactive,BY,1,1,1,372,130,lo,lo
Axcpt,130518,wave2,proactive,AX,2,2,1,314,131,,
Axcpt,130518,wave2,proactive,BX,1,2,0,484,132,hi,hi
Axcpt,130518,wave2,proactive,BY,1,1,1,434,133,lo,lo
Axcpt,130518,wave2,proactive,AX,2,2,1,343,134,,
Axcpt,130518,wave2,proactive,Ang,,,1,0,135,,
Axcpt,130518,wave2,proactive,BX,1,2,0,526,136,hi,hi
Axcpt,130518,wave2,proactive,AX,2,2,1,364,137,,
Axcpt,130518,wave2,proactive,AX,2,2,1,284,138,,
Axcpt,130518,wave2,proactive,BY,1,1,1,487,139,lo,lo
Axcpt,130518,wave2,proactive,BY,1,1,1,405,140,lo,lo
Axcpt,130518,wave2,proactive,Bng,,,1,0,141,,
Axcpt,130518,wave2,proactive,AX,2,2,1,321,142,,
Axcpt,130518,wave2,proactive,Bng,,,1,0,143,,
Axcpt,130518,wave2,proactive,BY,1,1,1,405,144,lo,lo
Axcpt,130518,wave2,reactive,BY,1,1,1,519,1,lo,lo
Axcpt,130518,wave2,reactive,BY,1,1,1,443,2,lo,lo
Axcpt,130518,wave2,reactive,BY,1,1,1,349,3,lo,lo
Axcpt,130518,wave2,reactive,BY,1,1,1,373,4,lo,lo
Axcpt,130518,wave2,reactive,AX,2,2,1,240,5,,
Axcpt,130518,wave2,reactive,BX,1,1,1,392,6,hi,hi
Axcpt,130518,wave2,reactive,Ang,,,1,0,7,,
Axcpt,130518,wave2,reactive,BY,1,1,1,415,8,lo,lo
Axcpt,130518,wave2,reactive,AX,2,2,1,323,9,,
Axcpt,130518,wave2,reactive,AX,2,2,1,330,10,,
Axcpt,130518,wave2,reactive,AX,2,2,1,297,11,,
Axcpt,130518,wave2,reactive,BY,1,1,1,635,12,lo,lo
Axcpt,130518,wave2,reactive,Bng,,,1,0,13,,
Axcpt,130518,wave2,reactive,AX,2,2,1,312,14,,
Axcpt,130518,wave2,reactive,BY,1,1,1,375,15,lo,lo
Axcpt,130518,wave2,reactive,Ang,,,1,0,16,,
Axcpt,130518,wave2,reactive,AX,2,2,1,348,17,,
Axcpt,130518,wave2,reactive,AY,1,2,0,404,18,,
Axcpt,130518,wave2,reactive,AX,2,2,1,467,19,,
Axcpt,130518,wave2,reactive,AY,1,1,1,627,20,,
Axcpt,130518,wave2,reactive,Bng,,,1,0,21,,
Axcpt,130518,wave2,reactive,BY,1,1,1,360,22,lo,lo
Axcpt,130518,wave2,reactive,AX,2,2,1,264,23,,
Axcpt,130518,wave2,reactive,BX,1,1,1,358,24,hi,hi
Axcpt,130518,wave2,reactive,AX,2,2,1,348,25,,
Axcpt,130518,wave2,reactive,Ang,,,1,0,26,,
Axcpt,130518,wave2,reactive,Bng,,,1,0,27,,
Axcpt,130518,wave2,reactive,AX,2,2,1,261,28,,
Axcpt,130518,wave2,reactive,BY,1,1,1,477,29,lo,lo
Axcpt,130518,wave2,reactive,AY,1,1,1,538,30,,
Axcpt,130518,wave2,reactive,BY,1,1,1,368,31,lo,lo
Axcpt,130518,wave2,reactive,BY,1,1,1,471,32,lo,lo
Axcpt,130518,wave2,reactive,AX,2,2,1,388,33,,
Axcpt,130518,wave2,reactive,AX,2,2,1,324,34,,
Axcpt,130518,wave2,reactive,AY,1,1,1,540,35,,
Axcpt,130518,wave2,reactive,BY,1,1,1,385,36,lo,lo
Axcpt,130518,wave2,reactive,AX,2,1,0,347,37,,
Axcpt,130518,wave2,reactive,BY,1,1,1,568,38,lo,lo
Axcpt,130518,wave2,reactive,AX,2,2,1,272,39,,
Axcpt,130518,wave2,reactive,Ang,,,1,0,40,,
Axcpt,130518,wave2,reactive,BY,1,1,1,307,41,lo,lo
Axcpt,130518,wave2,reactive,AX,2,2,1,316,42,,
Axcpt,130518,wave2,reactive,BX,1,1,1,567,43,hi,hi
Axcpt,130518,wave2,reactive,AX,2,2,1,335,44,,
Axcpt,130518,wave2,reactive,BY,1,1,1,425,45,lo,lo
Axcpt,130518,wave2,reactive,Bng,,,1,0,46,,
Axcpt,130518,wave2,reactive,BY,1,1,1,522,47,lo,lo
Axcpt,130518,wave2,reactive,BX,1,1,1,681,48,hi,hi
Axcpt,130518,wave2,reactive,BX,1,1,1,396,49,hi,hi
Axcpt,130518,wave2,reactive,BY,1,1,1,329,50,lo,lo
Axcpt,130518,wave2,reactive,BY,1,1,1,308,51,lo,lo
Axcpt,130518,wave2,reactive,BY,1,1,1,392,52,lo,lo
Axcpt,130518,wave2,reactive,Bng,,,1,0,53,,
Axcpt,130518,wave2,reactive,Ang,,,1,0,54,,
Axcpt,130518,wave2,reactive,Ang,,,1,0,55,,
Axcpt,130518,wave2,reactive,Bng,,,1,0,56,,
Axcpt,130518,wave2,reactive,AX,2,2,1,283,57,,
Axcpt,130518,wave2,reactive,BY,1,1,1,479,58,lo,lo
Axcpt,130518,wave2,reactive,AX,2,2,1,292,59,,
Axcpt,130518,wave2,reactive,BX,1,1,1,618,60,hi,hi
Axcpt,130518,wave2,reactive,AX,2,2,1,372,61,,
Axcpt,130518,wave2,reactive,AX,2,2,1,251,62,,
Axcpt,130518,wave2,reactive,AY,1,1,1,530,63,,
Axcpt,130518,wave2,reactive,AX,2,2,1,269,64,,
Axcpt,130518,wave2,reactive,BY,1,1,1,343,65,lo,lo
Axcpt,130518,wave2,reactive,AX,2,2,1,562,66,,
Axcpt,130518,wave2,reactive,BY,1,1,1,468,67,lo,lo
Axcpt,130518,wave2,reactive,AY,1,1,1,370,68,,
Axcpt,130518,wave2,reactive,BY,1,1,1,485,69,lo,lo
Axcpt,130518,wave2,reactive,AX,2,2,1,263,70,,
Axcpt,130518,wave2,reactive,AX,2,2,1,265,71,,
Axcpt,130518,wave2,reactive,BY,1,1,1,266,72,lo,lo
Axcpt,130518,wave2,reactive,BX,1,1,1,374,73,hi,hi
Axcpt,130518,wave2,reactive,BY,1,1,1,316,74,lo,lo
Axcpt,130518,wave2,reactive,BY,1,1,1,318,75,lo,lo
Axcpt,130518,wave2,reactive,AX,2,2,1,290,76,,
Axcpt,130518,wave2,reactive,BY,1,1,1,344,77,lo,lo
Axcpt,130518,wave2,reactive,AX,2,2,1,382,78,,
Axcpt,130518,wave2,reactive,Bng,,,1,0,79,,
Axcpt,130518,wave2,reactive,AX,2,2,1,280,80,,
Axcpt,130518,wave2,reactive,Ang,,,1,0,81,,
Axcpt,130518,wave2,reactive,Ang,,,1,0,82,,
Axcpt,130518,wave2,reactive,BY,1,1,1,346,83,lo,lo
Axcpt,130518,wave2,reactive,BY,1,1,1,301,84,lo,lo
Axcpt,130518,wave2,reactive,AY,1,1,1,704,85,,
Axcpt,130518,wave2,reactive,AX,2,2,1,492,86,,
Axcpt,130518,wave2,reactive,BY,1,1,1,376,87,lo,lo
Axcpt,130518,wave2,reactive,AX,2,2,1,420,88,,
Axcpt,130518,wave2,reactive,BX,1,1,1,534,89,hi,hi
Axcpt,130518,wave2,reactive,Bng,,,1,0,90,,
Axcpt,130518,wave2,reactive,AX,2,2,1,344,91,,
Axcpt,130518,wave2,reactive,BY,1,1,1,332,92,lo,lo
Axcpt,130518,wave2,reactive,AX,2,2,1,468,93,,
Axcpt,130518,wave2,reactive,BY,1,1,1,316,94,lo,lo
Axcpt,130518,wave2,reactive,AX,2,2,1,355,95,,
Axcpt,130518,wave2,reactive,AY,1,1,1,817,96,,
Axcpt,130518,wave2,reactive,AX,2,2,1,417,97,,
Axcpt,130518,wave2,reactive,Ang,,,1,0,98,,
Axcpt,130518,wave2,reactive,AX,2,2,1,354,99,,
Axcpt,130518,wave2,reactive,BY,1,1,1,220,100,lo,lo
Axcpt,130518,wave2,reactive,BY,1,1,1,280,101,lo,lo
Axcpt,130518,wave2,reactive,BY,1,1,1,343,102,lo,lo
Axcpt,130518,wave2,reactive,Ang,,,1,0,103,,
Axcpt,130518,wave2,reactive,BX,1,1,1,606,104,hi,hi
Axcpt,130518,wave2,reactive,BY,1,1,1,363,105,lo,lo
Axcpt,130518,wave2,reactive,AY,1,1,1,482,106,,
Axcpt,130518,wave2,reactive,BX,1,1,1,478,107,hi,hi
Axcpt,130518,wave2,reactive,AX,2,2,1,382,108,,
Axcpt,130518,wave2,reactive,BY,1,1,1,277,109,lo,lo
Axcpt,130518,wave2,reactive,Bng,,,1,0,110,,
Axcpt,130518,wave2,reactive,BY,1,1,1,383,111,lo,lo
Axcpt,130518,wave2,reactive,Bng,,,1,0,112,,
Axcpt,130518,wave2,reactive,BY,1,1,1,422,113,lo,lo
Axcpt,130518,wave2,reactive,AX,2,2,1,395,114,,
Axcpt,130518,wave2,reactive,AX,2,2,1,285,115,,
Axcpt,130518,wave2,reactive,AY,1,1,1,574,116,,
Axcpt,130518,wave2,reactive,AX,2,2,1,465,117,,
Axcpt,130518,wave2,reactive,AX,2,,0,0,118,,
Axcpt,130518,wave2,reactive,BY,1,1,1,396,119,lo,lo
Axcpt,130518,wave2,reactive,AX,2,2,1,456,120,,
Axcpt,130518,wave2,reactive,BX,1,1,1,488,121,hi,hi
Axcpt,130518,wave2,reactive,BY,1,1,1,336,122,lo,lo
Axcpt,130518,wave2,reactive,BY,1,1,1,453,123,lo,lo
Axcpt,130518,wave2,reactive,BY,1,1,1,330,124,lo,lo
Axcpt,130518,wave2,reactive,BY,1,1,1,303,125,lo,lo
Axcpt,130518,wave2,reactive,AX,2,2,1,432,126,,
Axcpt,130518,wave2,reactive,AX,2,2,1,421,127,,
Axcpt,130518,wave2,reactive,BY,1,1,1,357,128,lo,lo
Axcpt,130518,wave2,reactive,AY,1,1,1,415,129,,
Axcpt,130518,wave2,reactive,BX,1,1,1,333,130,hi,hi
Axcpt,130518,wave2,reactive,Ang,,1,0,488,131,,
Axcpt,130518,wave2,reactive,AX,2,2,1,354,132,,
Axcpt,130518,wave2,reactive,AX,2,2,1,408,133,,
Axcpt,130518,wave2,reactive,AY,1,1,1,585,134,,
Axcpt,130518,wave2,reactive,AX,2,2,1,518,135,,
Axcpt,130518,wave2,reactive,BY,1,1,1,442,136,lo,lo
Axcpt,130518,wave2,reactive,Ang,,1,0,713,137,,
Axcpt,130518,wave2,reactive,AX,2,2,1,279,138,,
Axcpt,130518,wave2,reactive,BY,1,1,1,351,139,lo,lo
Axcpt,130518,wave2,reactive,BY,1,1,1,292,140,lo,lo
Axcpt,130518,wave2,reactive,Bng,,,1,0,141,,
Axcpt,130518,wave2,reactive,AX,2,2,1,639,142,,
Axcpt,130518,wave2,reactive,Bng,,,1,0,143,,
Axcpt,130518,wave2,reactive,AX,2,2,1,311,144,,
Axcpt,155938,wave1,baseline,AY,1,1,1,845,1,,
Axcpt,155938,wave1,baseline,BX,1,1,1,909,2,hi,hi
Axcpt,155938,wave1,baseline,AX,2,2,1,341,3,,
Axcpt,155938,wave1,baseline,BY,1,1,1,429,4,lo,lo
Axcpt,155938,wave1,baseline,AX,2,2,1,332,5,,
Axcpt,155938,wave1,baseline,AY,1,1,1,692,6,,
Axcpt,155938,wave1,baseline,AX,2,2,1,335,7,,
Axcpt,155938,wave1,baseline,AX,2,2,1,606,8,,
Axcpt,155938,wave1,baseline,Bng,,,1,0,9,,
Axcpt,155938,wave1,baseline,BX,1,2,0,774,10,hi,hi
Axcpt,155938,wave1,baseline,BY,1,1,1,372,11,lo,lo
Axcpt,155938,wave1,baseline,BY,1,1,1,317,12,lo,lo
Axcpt,155938,wave1,baseline,AX,2,2,1,345,13,,
Axcpt,155938,wave1,baseline,BY,1,1,1,486,14,lo,lo
Axcpt,155938,wave1,baseline,BY,1,1,1,412,15,lo,lo
Axcpt,155938,wave1,baseline,Bng,,,1,0,16,,
Axcpt,155938,wave1,baseline,AX,2,2,1,557,17,,
Axcpt,155938,wave1,baseline,AX,2,2,1,416,18,,
Axcpt,155938,wave1,baseline,BY,1,1,1,421,19,lo,lo
Axcpt,155938,wave1,baseline,AX,2,2,1,447,20,,
Axcpt,155938,wave1,baseline,BY,1,1,1,416,21,lo,lo
Axcpt,155938,wave1,baseline,Ang,,,1,0,22,,
Axcpt,155938,wave1,baseline,BY,1,1,1,507,23,lo,lo
Axcpt,155938,wave1,baseline,Ang,,,1,0,24,,
Axcpt,155938,wave1,baseline,Bng,,,1,0,25,,
Axcpt,155938,wave1,baseline,BY,1,1,1,460,26,lo,lo
Axcpt,155938,wave1,baseline,AX,2,2,1,388,27,,
Axcpt,155938,wave1,baseline,BY,1,1,1,1131,28,lo,lo
Axcpt,155938,wave1,baseline,AX,2,2,1,686,29,,
Axcpt,155938,wave1,baseline,BY,1,1,1,689,30,lo,lo
Axcpt,155938,wave1,baseline,Bng,,,1,0,31,,
Axcpt,155938,wave1,baseline,BX,1,1,1,1284,32,hi,hi
Axcpt,155938,wave1,baseline,AX,2,2,1,387,33,,
Axcpt,155938,wave1,baseline,AX,2,2,1,426,34,,
Axcpt,155938,wave1,baseline,Ang,,,1,0,35,,
Axcpt,155938,wave1,baseline,BY,1,1,1,388,36,lo,lo
Axcpt,155938,wave1,baseline,AY,1,1,1,548,37,,
Axcpt,155938,wave1,baseline,Ang,,,1,0,38,,
Axcpt,155938,wave1,baseline,BY,1,1,1,501,39,lo,lo
Axcpt,155938,wave1,baseline,BY,1,1,1,455,40,lo,lo
Axcpt,155938,wave1,baseline,AY,1,1,1,607,41,,
Axcpt,155938,wave1,baseline,AX,2,,0,0,42,,
Axcpt,155938,wave1,baseline,AX,2,1,0,485,43,,
Axcpt,155938,wave1,baseline,AX,2,2,1,364,44,,
Axcpt,155938,wave1,baseline,BY,1,1,1,326,45,lo,lo
Axcpt,155938,wave1,baseline,AX,2,2,1,360,46,,
Axcpt,155938,wave1,baseline,BY,1,1,1,338,47,lo,lo
Axcpt,155938,wave1,baseline,BX,1,1,1,359,48,hi,hi
Axcpt,155938,wave1,baseline,BY,1,1,1,422,49,lo,lo
Axcpt,155938,wave1,baseline,Ang,,,1,0,50,,
Axcpt,155938,wave1,baseline,AX,2,2,1,324,51,,
Axcpt,155938,wave1,baseline,BX,1,1,1,463,52,hi,hi
Axcpt,155938,wave1,baseline,AX,2,2,1,330,53,,
Axcpt,155938,wave1,baseline,AX,2,2,1,355,54,,
Axcpt,155938,wave1,baseline,BY,1,,0,0,55,lo,lo
Axcpt,155938,wave1,baseline,Bng,,,1,0,56,,
Axcpt,155938,wave1,baseline,Bng,,,1,0,57,,
Axcpt,155938,wave1,baseline,Ang,,1,0,529,58,,
Axcpt,155938,wave1,baseline,AX,2,2,1,386,59,,
Axcpt,155938,wave1,baseline,BX,1,2,0,1128,60,hi,hi
Axcpt,155938,wave1,baseline,AX,2,2,1,405,61,,
Axcpt,155938,wave1,baseline,AY,1,1,1,1347,62,,
Axcpt,155938,wave1,baseline,AX,2,2,1,1262,63,,
Axcpt,155938,wave1,baseline,BY,1,1,1,654,64,lo,lo
Axcpt,155938,wave1,baseline,AX,2,2,1,385,65,,
Axcpt,155938,wave1,baseline,BY,1,1,1,532,66,lo,lo
Axcpt,155938,wave1,baseline,AX,2,2,1,449,67,,
Axcpt,155938,wave1,baseline,AY,1,1,1,628,68,,
Axcpt,155938,wave1,baseline,BY,1,1,1,528,69,lo,lo
Axcpt,155938,wave1,baseline,BY,1,1,1,428,70,lo,lo
Axcpt,155938,wave1,baseline,BY,1,1,1,487,71,lo,lo
Axcpt,155938,wave1,baseline,BY,1,1,1,405,72,lo,lo
Axcpt,155938,wave1,baseline,BY,1,1,1,334,73,lo,lo
Axcpt,155938,wave1,baseline,BY,1,1,1,315,74,lo,lo
Axcpt,155938,wave1,baseline,AX,2,2,1,356,75,,
Axcpt,155938,wave1,baseline,BY,1,1,1,318,76,lo,lo
Axcpt,155938,wave1,baseline,BY,1,1,1,371,77,lo,lo
Axcpt,155938,wave1,baseline,AX,2,2,1,339,78,,
Axcpt,155938,wave1,baseline,AY,1,1,1,427,79,,
Axcpt,155938,wave1,baseline,AY,1,1,1,358,80,,
Axcpt,155938,wave1,baseline,AX,2,2,1,758,81,,
Axcpt,155938,wave1,baseline,AX,2,2,1,405,82,,
Axcpt,155938,wave1,baseline,Ang,,,1,0,83,,
Axcpt,155938,wave1,baseline,AX,2,2,1,656,84,,
Axcpt,155938,wave1,baseline,AX,2,2,1,561,85,,
Axcpt,155938,wave1,baseline,BY,1,1,1,405,86,lo,lo
Axcpt,155938,wave1,baseline,Ang,,,1,0,87,,
Axcpt,155938,wave1,baseline,BY,1,1,1,428,88,lo,lo
Axcpt,155938,wave1,baseline,BY,1,1,1,310,89,lo,lo
Axcpt,155938,wave1,baseline,AX,2,2,1,620,90,,
Axcpt,155938,wave1,baseline,AX,2,2,1,381,91,,
Axcpt,155938,wave1,baseline,BX,1,1,1,1066,92,hi,hi
Axcpt,155938,wave1,baseline,Bng,,1,0,414,93,,
Axcpt,155938,wave1,baseline,BY,1,1,1,377,94,lo,lo
Axcpt,155938,wave1,baseline,Bng,,,1,0,95,,
Axcpt,155938,wave1,baseline,BX,1,,0,0,96,hi,hi
Axcpt,155938,wave1,baseline,AX,2,2,1,492,97,,
Axcpt,155938,wave1,baseline,BY,1,1,1,940,98,lo,lo
Axcpt,155938,wave1,baseline,AX,2,2,1,389,99,,
Axcpt,155938,wave1,baseline,AX,2,2,1,308,100,,
Axcpt,155938,wave1,baseline,AX,2,2,1,332,101,,
Axcpt,155938,wave1,baseline,BY,1,1,1,413,102,lo,lo
Axcpt,155938,wave1,baseline,AY,1,,0,0,103,,
Axcpt,155938,wave1,baseline,AY,1,1,1,573,104,,
Axcpt,155938,wave1,baseline,AX,2,2,1,441,105,,
Axcpt,155938,wave1,baseline,Bng,,1,0,302,106,,
Axcpt,155938,wave1,baseline,BY,1,1,1,432,107,lo,lo
Axcpt,155938,wave1,baseline,BX,1,1,1,682,108,hi,hi
Axcpt,155938,wave1,baseline,BX,1,,0,0,109,hi,hi
Axcpt,155938,wave1,baseline,AX,2,2,1,526,110,,
Axcpt,155938,wave1,baseline,BY,1,1,1,589,111,lo,lo
Axcpt,155938,wave1,baseline,BY,1,1,1,305,112,lo,lo
Axcpt,155938,wave1,baseline,Bng,,,1,0,113,,
Axcpt,155938,wave1,baseline,BY,1,1,1,445,114,lo,lo
Axcpt,155938,wave1,baseline,BY,1,,0,0,115,lo,lo
Axcpt,155938,wave1,baseline,AX,2,2,1,655,116,,
Axcpt,155938,wave1,baseline,Ang,,,1,0,117,,
Axcpt,155938,wave1,baseline,AX,2,1,0,451,118,,
Axcpt,155938,wave1,baseline,BY,1,1,1,336,119,lo,lo
Axcpt,155938,wave1,baseline,Ang,,,1,0,120,,
Axcpt,155938,wave1,baseline,AX,2,2,1,359,121,,
Axcpt,155938,wave1,baseline,AY,1,1,1,961,122,,
Axcpt,155938,wave1,baseline,BY,1,1,1,390,123,lo,lo
Axcpt,155938,wave1,baseline,BX,1,,0,0,124,hi,hi
Axcpt,155938,wave1,baseline,AY,1,1,1,948,125,,
Axcpt,155938,wave1,baseline,Bng,,,1,0,126,,
Axcpt,155938,wave1,baseline,AX,2,2,1,510,127,,
Axcpt,155938,wave1,baseline,BX,1,1,1,1059,128,hi,hi
Axcpt,155938,wave1,baseline,BY,1,1,1,289,129,lo,lo
Axcpt,155938,wave1,baseline,BY,1,1,1,302,130,lo,lo
Axcpt,155938,wave1,baseline,AX,2,2,1,583,131,,
Axcpt,155938,wave1,baseline,AX,2,2,1,492,132,,
Axcpt,155938,wave1,baseline,BY,1,1,1,611,133,lo,lo
Axcpt,155938,wave1,baseline,BY,1,1,1,380,134,lo,lo
Axcpt,155938,wave1,baseline,AX,2,2,1,486,135,,
Axcpt,155938,wave1,baseline,BY,1,1,1,371,136,lo,lo
Axcpt,155938,wave1,baseline,BY,1,1,1,316,137,lo,lo
Axcpt,155938,wave1,baseline,Ang,,,1,0,138,,
Axcpt,155938,wave1,baseline,Ang,,,1,0,139,,
Axcpt,155938,wave1,baseline,BY,1,1,1,427,140,lo,lo
Axcpt,155938,wave1,baseline,Bng,,,1,0,141,,
Axcpt,155938,wave1,baseline,AX,2,1,0,311,142,,
Axcpt,155938,wave1,baseline,AX,2,2,1,598,143,,
Axcpt,155938,wave1,baseline,AX,2,2,1,312,144,,
Axcpt,155938,wave1,proactive,Ang,,,1,0,1,,
Axcpt,155938,wave1,proactive,AX,2,2,1,324,2,,
Axcpt,155938,wave1,proactive,AY,1,1,1,961,3,,
Axcpt,155938,wave1,proactive,BY,1,1,1,306,4,lo,lo
Axcpt,155938,wave1,proactive,Ang,,,1,0,5,,
Axcpt,155938,wave1,proactive,AX,2,2,1,311,6,,
Axcpt,155938,wave1,proactive,AY,1,1,1,560,7,,
Axcpt,155938,wave1,proactive,BX,1,1,1,742,8,hi,hi
Axcpt,155938,wave1,proactive,BY,1,1,1,329,9,lo,lo
Axcpt,155938,wave1,proactive,AX,2,2,1,393,10,,
Axcpt,155938,wave1,proactive,Bng,,1,0,241,11,,
Axcpt,155938,wave1,proactive,AX,2,2,1,402,12,,
Axcpt,155938,wave1,proactive,AX,2,2,1,400,13,,
Axcpt,155938,wave1,proactive,BY,1,1,1,335,14,lo,lo
Axcpt,155938,wave1,proactive,BY,1,1,1,290,15,lo,lo
Axcpt,155938,wave1,proactive,AX,2,2,1,311,16,,
Axcpt,155938,wave1,proactive,AX,2,2,1,287,17,,
Axcpt,155938,wave1,proactive,BX,1,1,1,962,18,hi,hi
Axcpt,155938,wave1,proactive,AX,2,2,1,398,19,,
Axcpt,155938,wave1,proactive,Bng,,1,0,362,20,,
Axcpt,155938,wave1,proactive,BY,1,1,1,413,21,lo,lo
Axcpt,155938,wave1,proactive,BY,1,1,1,570,22,lo,lo
Axcpt,155938,wave1,proactive,BY,1,1,1,389,23,lo,lo
Axcpt,155938,wave1,proactive,BY,1,1,1,334,24,lo,lo
Axcpt,155938,wave1,proactive,BY,1,1,1,303,25,lo,lo
Axcpt,155938,wave1,proactive,Bng,,,1,0,26,,
Axcpt,155938,wave1,proactive,BY,1,1,1,418,27,lo,lo
Axcpt,155938,wave1,proactive,AX,2,2,1,340,28,,
Axcpt,155938,wave1,proactive,Ang,,,1,0,29,,
Axcpt,155938,wave1,proactive,AX,2,2,1,398,30,,
Axcpt,155938,wave1,proactive,BY,1,1,1,368,31,lo,lo
Axcpt,155938,wave1,proactive,AX,2,2,1,401,32,,
Axcpt,155938,wave1,proactive,BY,1,1,1,315,33,lo,lo
Axcpt,155938,wave1,proactive,BX,1,1,1,355,34,hi,hi
Axcpt,155938,wave1,proactive,AX,2,2,1,295,35,,
Axcpt,155938,wave1,proactive,AX,2,2,1,373,36,,
Axcpt,155938,wave1,proactive,Ang,,,1,0,37,,
Axcpt,155938,wave1,proactive,AX,2,2,1,352,38,,
Axcpt,155938,wave1,proactive,BY,1,1,1,351,39,lo,lo
Axcpt,155938,wave1,proactive,BY,1,1,1,341,40,lo,lo
Axcpt,155938,wave1,proactive,BY,1,1,1,387,41,lo,lo
Axcpt,155938,wave1,proactive,AX,2,2,1,335,42,,
Axcpt,155938,wave1,proactive,Bng,,,1,0,43,,
Axcpt,155938,wave1,proactive,AY,1,1,1,936,44,,
Axcpt,155938,wave1,proactive,BX,1,1,1,394,45,hi,hi
Axcpt,155938,wave1,proactive,AY,1,1,1,527,46,,
Axcpt,155938,wave1,proactive,BY,1,1,1,430,47,lo,lo
Axcpt,155938,wave1,proactive,AX,2,2,1,395,48,,
Axcpt,155938,wave1,proactive,BY,1,1,1,406,49,lo,lo
Axcpt,155938,wave1,proactive,AX,2,2,1,320,50,,
Axcpt,155938,wave1,proactive,AX,2,2,1,320,51,,
Axcpt,155938,wave1,proactive,AX,2,2,1,337,52,,
Axcpt,155938,wave1,proactive,BY,1,1,1,328,53,lo,lo
Axcpt,155938,wave1,proactive,BY,1,1,1,323,54,lo,lo
Axcpt,155938,wave1,proactive,BX,1,1,1,350,55,hi,hi
Axcpt,155938,wave1,proactive,BY,1,1,1,344,56,lo,lo
Axcpt,155938,wave1,proactive,AX,2,2,1,364,57,,
Axcpt,155938,wave1,proactive,Bng,,,1,0,58,,
Axcpt,155938,wave1,proactive,Ang,,,1,0,59,,
Axcpt,155938,wave1,proactive,AX,2,2,1,456,60,,
Axcpt,155938,wave1,proactive,Bng,,,1,0,61,,
Axcpt,155938,wave1,proactive,BY,1,1,1,316,62,lo,lo
Axcpt,155938,wave1,proactive,AY,1,1,1,500,63,,
Axcpt,155938,wave1,proactive,AX,2,2,1,380,64,,
Axcpt,155938,wave1,proactive,BY,1,1,1,258,65,lo,lo
Axcpt,155938,wave1,proactive,Ang,,,1,0,66,,
Axcpt,155938,wave1,proactive,BX,1,1,1,373,67,hi,hi
Axcpt,155938,wave1,proactive,AX,2,2,1,267,68,,
Axcpt,155938,wave1,proactive,AX,2,2,1,308,69,,
Axcpt,155938,wave1,proactive,BY,1,1,1,397,70,lo,lo
Axcpt,155938,wave1,proactive,AY,1,1,1,470,71,,
Axcpt,155938,wave1,proactive,BY,1,1,1,330,72,lo,lo
Axcpt,155938,wave1,proactive,AY,1,1,1,690,73,,
Axcpt,155938,wave1,proactive,Bng,,,1,0,74,,
Axcpt,155938,wave1,proactive,AX,2,2,1,387,75,,
Axcpt,155938,wave1,proactive,AX,2,2,1,363,76,,
Axcpt,155938,wave1,proactive,AX,2,2,1,289,77,,
Axcpt,155938,wave1,proactive,BY,1,1,1,302,78,lo,lo
Axcpt,155938,wave1,proactive,BY,1,1,1,341,79,lo,lo
Axcpt,155938,wave1,proactive,BY,1,1,1,312,80,lo,lo
Axcpt,155938,wave1,proactive,AX,2,2,1,333,81,,
Axcpt,155938,wave1,proactive,BY,1,1,1,550,82,lo,lo
Axcpt,155938,wave1,proactive,AX,2,2,1,455,83,,
Axcpt,155938,wave1,proactive,BY,1,1,1,364,84,lo,lo
Axcpt,155938,wave1,proactive,BX,1,1,1,428,85,hi,hi
Axcpt,155938,wave1,proactive,Ang,,,1,0,86,,
Axcpt,155938,wave1,proactive,BX,1,1,1,391,87,hi,hi
Axcpt,155938,wave1,proactive,Ang,,,1,0,88,,
Axcpt,155938,wave1,proactive,BY,1,1,1,381,89,lo,lo
Axcpt,155938,wave1,proactive,AX,2,2,1,625,90,,
Axcpt,155938,wave1,proactive,BY,1,1,1,351,91,lo,lo
Axcpt,155938,wave1,proactive,AX,2,2,1,304,92,,
Axcpt,155938,wave1,proactive,AX,2,2,1,284,93,,
Axcpt,155938,wave1,proactive,Bng,,1,0,263,94,,
Axcpt,155938,wave1,proactive,BY,1,1,1,394,95,lo,lo
Axcpt,155938,wave1,proactive,AY,1,1,1,524,96,,
Axcpt,155938,wave1,proactive,BY,1,1,1,325,97,lo,lo
Axcpt,155938,wave1,proactive,BY,1,1,1,287,98,lo,lo
Axcpt,155938,wave1,proactive,BY,1,1,1,430,99,lo,lo
Axcpt,155938,wave1,proactive,AX,2,2,1,390,100,,
Axcpt,155938,wave1,proactive,BY,1,1,1,317,101,lo,lo
Axcpt,155938,wave1,proactive,BX,1,1,1,389,102,hi,hi
Axcpt,155938,wave1,proactive,AX,2,2,1,375,103,,
Axcpt,155938,wave1,proactive,Ang,,,1,0,104,,
Axcpt,155938,wave1,proactive,BY,1,1,1,317,105,lo,lo
Axcpt,155938,wave1,proactive,AY,1,1,1,501,106,,
Axcpt,155938,wave1,proactive,AX,2,2,1,287,107,,
Axcpt,155938,wave1,proactive,AX,2,2,1,296,108,,
Axcpt,155938,wave1,proactive,AX,2,2,1,330,109,,
Axcpt,155938,wave1,proactive,BY,1,1,1,330,110,lo,lo
Axcpt,155938,wave1,proactive,BY,1,1,1,309,111,lo,lo
Axcpt,155938,wave1,proactive,AX,2,2,1,301,112,,
Axcpt,155938,wave1,proactive,BY,1,1,1,240,113,lo,lo
Axcpt,155938,wave1,proactive,Bng,,,1,0,114,,
Axcpt,155938,wave1,proactive,BX,1,1,1,418,115,hi,hi
Axcpt,155938,wave1,proactive,AY,1,1,1,575,116,,
Axcpt,155938,wave1,proactive,AX,2,2,1,308,117,,
Axcpt,155938,wave1,proactive,AX,2,2,1,293,118,,
Axcpt,155938,wave1,proactive,Bng,,,1,0,119,,
Axcpt,155938,wave1,proactive,Ang,,,1,0,120,,
Axcpt,155938,wave1,proactive,BY,1,1,1,344,121,lo,lo
Axcpt,155938,wave1,proactive,AX,2,2,1,300,122,,
Axcpt,155938,wave1,proactive,AY,1,2,0,334,123,,
Axcpt,155938,wave1,proactive,BX,1,1,1,299,124,hi,hi
Axcpt,155938,wave1,proactive,BY,1,1,1,360,125,lo,lo
Axcpt,155938,wave1,proactive,AX,2,2,1,488,126,,
Axcpt,155938,wave1,proactive,AX,2,2,1,441,127,,
Axcpt,155938,wave1,proactive,Ang,,,1,0,128,,
Axcpt,155938,wave1,proactive,BY,1,1,1,306,129,lo,lo
Axcpt,155938,wave1,proactive,BY,1,1,1,332,130,lo,lo
Axcpt,155938,wave1,proactive,AX,2,2,1,268,131,,
Axcpt,155938,wave1,proactive,AX,2,2,1,501,132,,
Axcpt,155938,wave1,proactive,AX,2,2,1,320,133,,
Axcpt,155938,wave1,proactive,BX,1,1,1,458,134,hi,hi
Axcpt,155938,wave1,proactive,Bng,,,1,0,135,,
Axcpt,155938,wave1,proactive,BY,1,1,1,391,136,lo,lo
Axcpt,155938,wave1,proactive,BY,1,1,1,348,137,lo,lo
Axcpt,155938,wave1,proactive,Bng,,,1,0,138,,
Axcpt,155938,wave1,proactive,AY,1,1,1,1126,139,,
Axcpt,155938,wave1,proactive,Ang,,,1,0,140,,
Axcpt,155938,wave1,proactive,BY,1,1,1,340,141,lo,lo
Axcpt,155938,wave1,proactive,AX,2,2,1,312,142,,
Axcpt,155938,wave1,proactive,BY,1,1,1,357,143,lo,lo
Axcpt,155938,wave1,proactive,AX,2,2,1,334,144,,
Axcpt,155938,wave1,reactive,AY,1,2,0,491,1,,
Axcpt,155938,wave1,reactive,AX,2,2,1,700,2,,
Axcpt,155938,wave1,reactive,BX,1,1,1,615,3,hi,hi
Axcpt,155938,wave1,reactive,AY,1,2,0,559,4,,
Axcpt,155938,wave1,reactive,AX,2,2,1,437,5,,
Axcpt,155938,wave1,reactive,Bng,,,1,0,6,,
Axcpt,155938,wave1,reactive,AX,2,2,1,370,7,,
Axcpt,155938,wave1,reactive,BY,1,1,1,424,8,lo,lo
Axcpt,155938,wave1,reactive,Ang,,,1,0,9,,
Axcpt,155938,wave1,reactive,BY,1,1,1,714,10,lo,lo
Axcpt,155938,wave1,reactive,BY,1,1,1,353,11,lo,lo
Axcpt,155938,wave1,reactive,BY,1,1,1,321,12,lo,lo
Axcpt,155938,wave1,reactive,AX,2,2,1,463,13,,
Axcpt,155938,wave1,reactive,AX,2,2,1,659,14,,
Axcpt,155938,wave1,reactive,AX,2,2,1,483,15,,
Axcpt,155938,wave1,reactive,AX,2,2,1,369,16,,
Axcpt,155938,wave1,reactive,BY,1,1,1,554,17,lo,lo
Axcpt,155938,wave1,reactive,Bng,,,1,0,18,,
Axcpt,155938,wave1,reactive,BY,1,1,1,403,19,lo,lo
Axcpt,155938,wave1,reactive,BX,1,1,1,435,20,hi,hi
Axcpt,155938,wave1,reactive,AX,2,2,1,366,21,,
Axcpt,155938,wave1,reactive,BY,1,1,1,367,22,lo,lo
Axcpt,155938,wave1,reactive,Ang,,,1,0,23,,
Axcpt,155938,wave1,reactive,BY,1,1,1,425,24,lo,lo
Axcpt,155938,wave1,reactive,AX,2,2,1,392,25,,
Axcpt,155938,wave1,reactive,AX,2,2,1,381,26,,
Axcpt,155938,wave1,reactive,BX,1,1,1,437,27,hi,hi
Axcpt,155938,wave1,reactive,AX,2,2,1,592,28,,
Axcpt,155938,wave1,reactive,Ang,,,1,0,29,,
Axcpt,155938,wave1,reactive,AX,2,2,1,914,30,,
Axcpt,155938,wave1,reactive,Bng,,,1,0,31,,
Axcpt,155938,wave1,reactive,AY,1,,0,0,32,,
Axcpt,155938,wave1,reactive,BY,1,1,1,608,33,lo,lo
Axcpt,155938,wave1,reactive,BY,1,1,1,360,34,lo,lo
Axcpt,155938,wave1,reactive,BY,1,1,1,417,35,lo,lo
Axcpt,155938,wave1,reactive,AX,2,2,1,369,36,,
Axcpt,155938,wave1,reactive,BX,1,1,1,597,37,hi,hi
Axcpt,155938,wave1,reactive,BY,1,1,1,360,38,lo,lo
Axcpt,155938,wave1,reactive,BY,1,1,1,421,39,lo,lo
Axcpt,155938,wave1,reactive,AX,2,2,1,336,40,,
Axcpt,155938,wave1,reactive,AY,1,1,1,617,41,,
Axcpt,155938,wave1,reactive,AX,2,2,1,331,42,,
Axcpt,155938,wave1,reactive,BY,1,1,1,369,43,lo,lo
Axcpt,155938,wave1,reactive,AX,2,2,1,357,44,,
Axcpt,155938,wave1,reactive,Bng,,,1,0,45,,
Axcpt,155938,wave1,reactive,BY,1,1,1,418,46,lo,lo
Axcpt,155938,wave1,reactive,Ang,,,1,0,47,,
Axcpt,155938,wave1,reactive,BY,1,1,1,382,48,lo,lo
Axcpt,155938,wave1,reactive,AX,2,2,1,402,49,,
Axcpt,155938,wave1,reactive,Bng,,,1,0,50,,
Axcpt,155938,wave1,reactive,BY,1,1,1,447,51,lo,lo
Axcpt,155938,wave1,reactive,BY,1,1,1,344,52,lo,lo
Axcpt,155938,wave1,reactive,AX,2,2,1,351,53,,
Axcpt,155938,wave1,reactive,BY,1,1,1,359,54,lo,lo
Axcpt,155938,wave1,reactive,BX,1,1,1,817,55,hi,hi
Axcpt,155938,wave1,reactive,AX,2,2,1,316,56,,
Axcpt,155938,wave1,reactive,AX,2,2,1,339,57,,
Axcpt,155938,wave1,reactive,AY,1,1,1,647,58,,
Axcpt,155938,wave1,reactive,BY,1,1,1,478,59,lo,lo
Axcpt,155938,wave1,reactive,BX,1,1,1,601,60,hi,hi
Axcpt,155938,wave1,reactive,BY,1,1,1,533,61,lo,lo
Axcpt,155938,wave1,reactive,AY,1,1,1,882,62,,
Axcpt,155938,wave1,reactive,BY,1,1,1,443,63,lo,lo
Axcpt,155938,wave1,reactive,Bng,,,1,0,64,,
Axcpt,155938,wave1,reactive,AX,2,,0,0,65,,
Axcpt,155938,wave1,reactive,AX,2,2,1,400,66,,
Axcpt,155938,wave1,reactive,BY,1,1,1,478,67,lo,lo
Axcpt,155938,wave1,reactive,AX,2,2,1,319,68,,
Axcpt,155938,wave1,reactive,AX,2,2,1,663,69,,
Axcpt,155938,wave1,reactive,Ang,,,1,0,70,,
Axcpt,155938,wave1,reactive,Ang,,,1,0,71,,
Axcpt,155938,wave1,reactive,BY,1,1,1,438,72,lo,lo
Axcpt,155938,wave1,reactive,AX,2,2,1,377,73,,
Axcpt,155938,wave1,reactive,AX,2,2,1,348,74,,
Axcpt,155938,wave1,reactive,BY,1,1,1,429,75,lo,lo
Axcpt,155938,wave1,reactive,AX,2,2,1,354,76,,
Axcpt,155938,wave1,reactive,BX,1,1,1,480,77,hi,hi
Axcpt,155938,wave1,reactive,BY,1,1,1,495,78,lo,lo
Axcpt,155938,wave1,reactive,AY,1,1,1,1436,79,,
Axcpt,155938,wave1,reactive,AX,2,2,1,336,80,,
Axcpt,155938,wave1,reactive,BY,1,1,1,315,81,lo,lo
Axcpt,155938,wave1,reactive,AX,2,2,1,365,82,,
Axcpt,155938,wave1,reactive,BY,1,1,1,280,83,lo,lo
Axcpt,155938,wave1,reactive,BY,1,1,1,510,84,lo,lo
Axcpt,155938,wave1,reactive,BY,1,1,1,339,85,lo,lo
Axcpt,155938,wave1,reactive,AX,2,2,1,279,86,,
Axcpt,155938,wave1,reactive,BY,1,1,1,455,87,lo,lo
Axcpt,155938,wave1,reactive,Ang,,,1,0,88,,
Axcpt,155938,wave1,reactive,Bng,,,1,0,89,,
Axcpt,155938,wave1,reactive,BY,1,1,1,290,90,lo,lo
Axcpt,155938,wave1,reactive,Ang,,,1,0,91,,
Axcpt,155938,wave1,reactive,BX,1,1,1,573,92,hi,hi
Axcpt,155938,wave1,reactive,AX,2,2,1,446,93,,
Axcpt,155938,wave1,reactive,Bng,,,1,0,94,,
Axcpt,155938,wave1,reactive,AX,2,2,1,648,95,,
Axcpt,155938,wave1,reactive,AY,1,1,1,798,96,,
Axcpt,155938,wave1,reactive,BX,1,1,1,652,97,hi,hi
Axcpt,155938,wave1,reactive,AX,2,2,1,292,98,,
Axcpt,155938,wave1,reactive,BY,1,1,1,377,99,lo,lo
Axcpt,155938,wave1,reactive,Bng,,,1,0,100,,
Axcpt,155938,wave1,reactive,AX,2,2,1,332,101,,
Axcpt,155938,wave1,reactive,BY,1,1,1,322,102,lo,lo
Axcpt,155938,wave1,reactive,BY,1,1,1,271,103,lo,lo
Axcpt,155938,wave1,reactive,Bng,,,1,0,104,,
Axcpt,155938,wave1,reactive,AX,2,2,1,308,105,,
Axcpt,155938,wave1,reactive,BY,1,1,1,410,106,lo,lo
Axcpt,155938,wave1,reactive,AY,1,1,1,493,107,,
Axcpt,155938,wave1,reactive,AX,2,2,1,327,108,,
Axcpt,155938,wave1,reactive,BY,1,1,1,407,109,lo,lo
Axcpt,155938,wave1,reactive,AX,2,2,1,450,110,,
Axcpt,155938,wave1,reactive,AX,2,2,1,329,111,,
Axcpt,155938,wave1,reactive,BY,1,1,1,311,112,lo,lo
Axcpt,155938,wave1,reactive,AX,2,2,1,317,113,,
Axcpt,155938,wave1,reactive,Ang,,,1,0,114,,
Axcpt,155938,wave1,reactive,Ang,,,1,0,115,,
Axcpt,155938,wave1,reactive,AX,2,2,1,329,116,,
Axcpt,155938,wave1,reactive,BY,1,1,1,435,117,lo,lo
Axcpt,155938,wave1,reactive,BX,1,1,1,913,118,hi,hi
Axcpt,155938,wave1,reactive,BY,1,1,1,405,119,lo,lo
Axcpt,155938,wave1,reactive,AY,1,1,1,469,120,,
Axcpt,155938,wave1,reactive,AX,2,2,1,370,121,,
Axcpt,155938,wave1,reactive,AX,2,2,1,442,122,,
Axcpt,155938,wave1,reactive,AX,2,2,1,357,123,,
Axcpt,155938,wave1,reactive,BY,1,1,1,449,124,lo,lo
Axcpt,155938,wave1,reactive,Bng,,,1,0,125,,
Axcpt,155938,wave1,reactive,BX,1,2,0,1153,126,hi,hi
Axcpt,155938,wave1,reactive,AX,2,2,1,351,127,,
Axcpt,155938,wave1,reactive,AX,2,2,1,299,128,,
Axcpt,155938,wave1,reactive,BY,1,1,1,479,129,lo,lo
Axcpt,155938,wave1,reactive,BY,1,1,1,368,130,lo,lo
Axcpt,155938,wave1,reactive,BY,1,1,1,461,131,lo,lo
Axcpt,155938,wave1,reactive,Ang,,,1,0,132,,
Axcpt,155938,wave1,reactive,BY,1,1,1,301,133,lo,lo
Axcpt,155938,wave1,reactive,BY,1,1,1,394,134,lo,lo
Axcpt,155938,wave1,reactive,BX,1,1,1,577,135,hi,hi
Axcpt,155938,wave1,reactive,AY,1,1,1,505,136,,
Axcpt,155938,wave1,reactive,BY,1,1,1,354,137,lo,lo
Axcpt,155938,wave1,reactive,AX,2,2,1,327,138,,
Axcpt,155938,wave1,reactive,BY,1,1,1,276,139,lo,lo
Axcpt,155938,wave1,reactive,AY,1,1,1,797,140,,
Axcpt,155938,wave1,reactive,Ang,,,1,0,141,,
Axcpt,155938,wave1,reactive,AX,2,1,0,499,142,,
Axcpt,155938,wave1,reactive,Bng,,,1,0,143,,
Axcpt,155938,wave1,reactive,AX,2,2,1,366,144,,
Axcpt,155938,wave2,baseline,Ang,,,1,0,1,,
Axcpt,155938,wave2,baseline,AX,2,2,1,327,2,,
Axcpt,155938,wave2,baseline,AY,1,1,1,442,3,,
Axcpt,155938,wave2,baseline,AX,2,2,1,743,4,,
Axcpt,155938,wave2,baseline,Bng,,,1,0,5,,
Axcpt,155938,wave2,baseline,AX,2,2,1,322,6,,
Axcpt,155938,wave2,baseline,BY,1,1,1,472,7,lo,lo
Axcpt,155938,wave2,baseline,Ang,,,1,0,8,,
Axcpt,155938,wave2,baseline,AX,2,2,1,450,9,,
Axcpt,155938,wave2,baseline,BY,1,1,1,544,10,lo,lo
Axcpt,155938,wave2,baseline,BY,1,1,1,347,11,lo,lo
Axcpt,155938,wave2,baseline,Bng,,,1,0,12,,
Axcpt,155938,wave2,baseline,BY,1,1,1,418,13,lo,lo
Axcpt,155938,wave2,baseline,AX,2,2,1,310,14,,
Axcpt,155938,wave2,baseline,AY,1,1,1,650,15,,
Axcpt,155938,wave2,baseline,BX,1,2,0,641,16,hi,hi
Axcpt,155938,wave2,baseline,AX,2,2,1,442,17,,
Axcpt,155938,wave2,baseline,BY,1,1,1,392,18,lo,lo
Axcpt,155938,wave2,baseline,BY,1,1,1,367,19,lo,lo
Axcpt,155938,wave2,baseline,AX,2,2,1,398,20,,
Axcpt,155938,wave2,baseline,BY,1,1,1,386,21,lo,lo
Axcpt,155938,wave2,baseline,BY,1,1,1,351,22,lo,lo
Axcpt,155938,wave2,baseline,BX,1,1,1,393,23,hi,hi
Axcpt,155938,wave2,baseline,AX,2,2,1,879,24,,
Axcpt,155938,wave2,baseline,BY,1,1,1,419,25,lo,lo
Axcpt,155938,wave2,baseline,BX,1,,0,0,26,hi,hi
Axcpt,155938,wave2,baseline,AX,2,2,1,384,27,,
Axcpt,155938,wave2,baseline,AX,2,2,1,321,28,,
Axcpt,155938,wave2,baseline,AX,2,2,1,354,29,,
Axcpt,155938,wave2,baseline,AY,1,1,1,386,30,,
Axcpt,155938,wave2,baseline,BX,1,1,1,973,31,hi,hi
Axcpt,155938,wave2,baseline,BY,1,1,1,420,32,lo,lo
Axcpt,155938,wave2,baseline,BY,1,1,1,382,33,lo,lo
Axcpt,155938,wave2,baseline,BY,1,1,1,347,34,lo,lo
Axcpt,155938,wave2,baseline,Ang,,,1,0,35,,
Axcpt,155938,wave2,baseline,AX,2,2,1,448,36,,
Axcpt,155938,wave2,baseline,BY,1,1,1,376,37,lo,lo
Axcpt,155938,wave2,baseline,BY,1,1,1,334,38,lo,lo
Axcpt,155938,wave2,baseline,AX,2,2,1,495,39,,
Axcpt,155938,wave2,baseline,Bng,,,1,0,40,,
Axcpt,155938,wave2,baseline,Ang,,,1,0,41,,
Axcpt,155938,wave2,baseline,BY,1,1,1,1228,42,lo,lo
Axcpt,155938,wave2,baseline,BY,1,1,1,318,43,lo,lo
Axcpt,155938,wave2,baseline,AY,1,1,1,478,44,,
Axcpt,155938,wave2,baseline,Bng,,,1,0,45,,
Axcpt,155938,wave2,baseline,AX,2,2,1,969,46,,
Axcpt,155938,wave2,baseline,AX,2,2,1,310,47,,
Axcpt,155938,wave2,baseline,AX,2,2,1,479,48,,
Axcpt,155938,wave2,baseline,Bng,,,1,0,49,,
Axcpt,155938,wave2,baseline,AX,2,2,1,448,50,,
Axcpt,155938,wave2,baseline,BY,1,1,1,699,51,lo,lo
Axcpt,155938,wave2,baseline,AX,2,2,1,367,52,,
Axcpt,155938,wave2,baseline,BY,1,1,1,382,53,lo,lo
Axcpt,155938,wave2,baseline,Bng,,,1,0,54,,
Axcpt,155938,wave2,baseline,AX,2,2,1,371,55,,
Axcpt,155938,wave2,baseline,AX,2,2,1,412,56,,
Axcpt,155938,wave2,baseline,AX,2,2,1,375,57,,
Axcpt,155938,wave2,baseline,BY,1,2,0,407,58,lo,lo
Axcpt,155938,wave2,baseline,AY,1,1,1,1136,59,,
Axcpt,155938,wave2,baseline,BY,1,1,1,404,60,lo,lo
Axcpt,155938,wave2,baseline,AX,2,2,1,825,61,,
Axcpt,155938,wave2,baseline,BY,1,1,1,1026,62,lo,lo
Axcpt,155938,wave2,baseline,BY,1,1,1,724,63,lo,lo
Axcpt,155938,wave2,baseline,AX,2,2,1,453,64,,
Axcpt,155938,wave2,baseline,BX,1,1,1,387,65,hi,hi
Axcpt,155938,wave2,baseline,BY,1,1,1,499,66,lo,lo
Axcpt,155938,wave2,baseline,BY,1,1,1,309,67,lo,lo
Axcpt,155938,wave2,baseline,Ang,,,1,0,68,,
Axcpt,155938,wave2,baseline,Ang,,,1,0,69,,
Axcpt,155938,wave2,baseline,AX,2,2,1,458,70,,
Axcpt,155938,wave2,baseline,BX,1,2,0,599,71,hi,hi
Axcpt,155938,wave2,baseline,AY,1,1,1,693,72,,
Axcpt,155938,wave2,baseline,BY,1,1,1,454,73,lo,lo
Axcpt,155938,wave2,baseline,BY,1,1,1,315,74,lo,lo
Axcpt,155938,wave2,baseline,BY,1,1,1,419,75,lo,lo
Axcpt,155938,wave2,baseline,Ang,,,1,0,76,,
Axcpt,155938,wave2,baseline,AX,2,2,1,656,77,,
Axcpt,155938,wave2,baseline,AX,2,2,1,487,78,,
Axcpt,155938,wave2,baseline,AX,2,2,1,418,79,,
Axcpt,155938,wave2,baseline,AX,2,2,1,449,80,,
Axcpt,155938,wave2,baseline,AY,1,1,1,680,81,,
Axcpt,155938,wave2,baseline,BY,1,1,1,450,82,lo,lo
Axcpt,155938,wave2,baseline,AX,2,2,1,571,83,,
Axcpt,155938,wave2,baseline,BX,1,2,0,459,84,hi,hi
Axcpt,155938,wave2,baseline,BY,1,1,1,414,85,lo,lo
Axcpt,155938,wave2,baseline,Bng,,,1,0,86,,
Axcpt,155938,wave2,baseline,AY,1,1,1,513,87,,
Axcpt,155938,wave2,baseline,AX,2,2,1,341,88,,
Axcpt,155938,wave2,baseline,BY,1,1,1,415,89,lo,lo
Axcpt,155938,wave2,baseline,AX,2,2,1,492,90,,
Axcpt,155938,wave2,baseline,BY,1,1,1,580,91,lo,lo
Axcpt,155938,wave2,baseline,AX,2,2,1,470,92,,
Axcpt,155938,wave2,baseline,Bng,,,1,0,93,,
Axcpt,155938,wave2,baseline,BX,1,1,1,471,94,hi,hi
Axcpt,155938,wave2,baseline,Ang,,,1,0,95,,
Axcpt,155938,wave2,baseline,BY,1,1,1,564,96,lo,lo
Axcpt,155938,wave2,baseline,AY,1,1,1,569,97,,
Axcpt,155938,wave2,baseline,AX,2,2,1,370,98,,
Axcpt,155938,wave2,baseline,AX,2,2,1,387,99,,
Axcpt,155938,wave2,baseline,BY,1,1,1,444,100,lo,lo
Axcpt,155938,wave2,baseline,BX,1,1,1,467,101,hi,hi
Axcpt,155938,wave2,baseline,BY,1,1,1,278,102,lo,lo
Axcpt,155938,wave2,baseline,Bng,,,1,0,103,,
Axcpt,155938,wave2,baseline,AX,2,2,1,481,104,,
Axcpt,155938,wave2,baseline,AX,2,2,1,464,105,,
Axcpt,155938,wave2,baseline,BY,1,1,1,354,106,lo,lo
Axcpt,155938,wave2,baseline,Ang,,,1,0,107,,
Axcpt,155938,wave2,baseline,BY,1,1,1,405,108,lo,lo
Axcpt,155938,wave2,baseline,AX,2,2,1,875,109,,
Axcpt,155938,wave2,baseline,BY,1,1,1,536,110,lo,lo
Axcpt,155938,wave2,baseline,BY,1,1,1,446,111,lo,lo
Axcpt,155938,wave2,baseline,AX,2,2,1,447,112,,
Axcpt,155938,wave2,baseline,AX,2,2,1,651,113,,
Axcpt,155938,wave2,baseline,Bng,,,1,0,114,,
Axcpt,155938,wave2,baseline,BY,1,1,1,417,115,lo,lo
Axcpt,155938,wave2,baseline,BY,1,1,1,417,116,lo,lo
Axcpt,155938,wave2,baseline,BX,1,1,1,363,117,hi,hi
Axcpt,155938,wave2,baseline,AY,1,1,1,1215,118,,
Axcpt,155938,wave2,baseline,Ang,,,1,0,119,,
Axcpt,155938,wave2,baseline,AX,2,1,0,1204,120,,
Axcpt,155938,wave2,baseline,AX,2,2,1,521,121,,
Axcpt,155938,wave2,baseline,BY,1,1,1,434,122,lo,lo
Axcpt,155938,wave2,baseline,BY,1,1,1,424,123,lo,lo
Axcpt,155938,wave2,baseline,Ang,,,1,0,124,,
Axcpt,155938,wave2,baseline,Ang,,,1,0,125,,
Axcpt,155938,wave2,baseline,Bng,,1,0,335,126,,
Axcpt,155938,wave2,baseline,AX,2,1,0,1097,127,,
Axcpt,155938,wave2,baseline,BY,1,1,1,503,128,lo,lo
Axcpt,155938,wave2,baseline,BY,1,1,1,312,129,lo,lo
Axcpt,155938,wave2,baseline,BX,1,1,1,848,130,hi,hi
Axcpt,155938,wave2,baseline,AX,2,2,1,507,131,,
Axcpt,155938,wave2,baseline,AX,2,2,1,317,132,,
Axcpt,155938,wave2,baseline,AX,2,2,1,330,133,,
Axcpt,155938,wave2,baseline,AY,1,1,1,938,134,,
Axcpt,155938,wave2,baseline,BY,1,1,1,493,135,lo,lo
Axcpt,155938,wave2,baseline,AX,2,2,1,704,136,,
Axcpt,155938,wave2,baseline,Bng,,,1,0,137,,
Axcpt,155938,wave2,baseline,BY,1,1,1,404,138,lo,lo
Axcpt,155938,wave2,baseline,BY,1,1,1,452,139,lo,lo
Axcpt,155938,wave2,baseline,AY,1,1,1,512,140,,
Axcpt,155938,wave2,baseline,BX,1,2,0,966,141,hi,hi
Axcpt,155938,wave2,baseline,AX,2,2,1,394,142,,
Axcpt,155938,wave2,baseline,AX,2,2,1,345,143,,
Axcpt,155938,wave2,baseline,BY,1,1,1,371,144,lo,lo
Axcpt,155938,wave2,proactive,AX,2,2,1,276,1,,
Axcpt,155938,wave2,proactive,BY,1,1,1,364,2,lo,lo
Axcpt,155938,wave2,proactive,AX,2,2,1,168,3,,
Axcpt,155938,wave2,proactive,Bng,,1,0,308,4,,
Axcpt,155938,wave2,proactive,BY,1,1,1,387,5,lo,lo
Axcpt,155938,wave2,proactive,BY,1,1,1,315,6,lo,lo
Axcpt,155938,wave2,proactive,BX,1,1,1,284,7,hi,hi
Axcpt,155938,wave2,proactive,BY,1,1,1,353,8,lo,lo
Axcpt,155938,wave2,proactive,BY,1,1,1,404,9,lo,lo
Axcpt,155938,wave2,proactive,Ang,,,1,0,10,,
Axcpt,155938,wave2,proactive,AX,2,2,1,366,11,,
Axcpt,155938,wave2,proactive,BY,1,1,1,309,12,lo,lo
Axcpt,155938,wave2,proactive,AX,2,2,1,315,13,,
Axcpt,155938,wave2,proactive,AX,2,2,1,321,14,,
Axcpt,155938,wave2,proactive,BX,1,1,1,388,15,hi,hi
Axcpt,155938,wave2,proactive,BY,1,1,1,314,16,lo,lo
Axcpt,155938,wave2,proactive,Bng,,,1,0,17,,
Axcpt,155938,wave2,proactive,AX,2,2,1,504,18,,
Axcpt,155938,wave2,proactive,AX,2,2,1,394,19,,
Axcpt,155938,wave2,proactive,AY,1,2,0,291,20,,
Axcpt,155938,wave2,proactive,AY,1,1,1,575,21,,
Axcpt,155938,wave2,proactive,Ang,,,1,0,22,,
Axcpt,155938,wave2,proactive,AX,2,2,1,413,23,,
Axcpt,155938,wave2,proactive,BY,1,1,1,336,24,lo,lo
Axcpt,155938,wave2,proactive,BY,1,1,1,399,25,lo,lo
Axcpt,155938,wave2,proactive,BY,1,1,1,399,26,lo,lo
Axcpt,155938,wave2,proactive,AX,2,1,0,424,27,,
Axcpt,155938,wave2,proactive,Ang,,,1,0,28,,
Axcpt,155938,wave2,proactive,AX,2,2,1,215,29,,
Axcpt,155938,wave2,proactive,AY,1,1,1,605,30,,
Axcpt,155938,wave2,proactive,AX,2,2,1,241,31,,
Axcpt,155938,wave2,proactive,AX,2,2,1,241,32,,
Axcpt,155938,wave2,proactive,BY,1,1,1,472,33,lo,lo
Axcpt,155938,wave2,proactive,Ang,,,1,0,34,,
Axcpt,155938,wave2,proactive,BY,1,1,1,306,35,lo,lo
Axcpt,155938,wave2,proactive,BY,1,1,1,374,36,lo,lo
Axcpt,155938,wave2,proactive,Bng,,1,0,286,37,,
Axcpt,155938,wave2,proactive,Bng,,,1,0,38,,
Axcpt,155938,wave2,proactive,AX,2,2,1,305,39,,
Axcpt,155938,wave2,proactive,BX,1,2,0,482,40,hi,hi
Axcpt,155938,wave2,proactive,AX,2,2,1,361,41,,
Axcpt,155938,wave2,proactive,AX,2,2,1,406,42,,
Axcpt,155938,wave2,proactive,AY,1,2,0,404,43,,
Axcpt,155938,wave2,proactive,BY,1,1,1,258,44,lo,lo
Axcpt,155938,wave2,proactive,BX,1,1,1,654,45,hi,hi
Axcpt,155938,wave2,proactive,BY,1,1,1,400,46,lo,lo
Axcpt,155938,wave2,proactive,AX,2,1,0,745,47,,
Axcpt,155938,wave2,proactive,BY,1,1,1,450,48,lo,lo
Axcpt,155938,wave2,proactive,AX,2,2,1,280,49,,
Axcpt,155938,wave2,proactive,BX,1,1,1,388,50,hi,hi
Axcpt,155938,wave2,proactive,AX,2,2,1,369,51,,
Axcpt,155938,wave2,proactive,BY,1,1,1,221,52,lo,lo
Axcpt,155938,wave2,proactive,AX,2,2,1,318,53,,
Axcpt,155938,wave2,proactive,BX,1,1,1,669,54,hi,hi
Axcpt,155938,wave2,proactive,BY,1,1,1,254,55,lo,lo
Axcpt,155938,wave2,proactive,AX,2,2,1,340,56,,
Axcpt,155938,wave2,proactive,AX,2,2,1,285,57,,
Axcpt,155938,wave2,proactive,AY,1,1,1,1322,58,,
Axcpt,155938,wave2,proactive,Bng,,1,0,338,59,,
Axcpt,155938,wave2,proactive,BY,1,1,1,241,60,lo,lo
Axcpt,155938,wave2,proactive,Ang,,,1,0,61,,
Axcpt,155938,wave2,proactive,BY,1,1,1,294,62,lo,lo
Axcpt,155938,wave2,proactive,BY,1,1,1,306,63,lo,lo
Axcpt,155938,wave2,proactive,AX,2,2,1,295,64,,
Axcpt,155938,wave2,proactive,BY,1,1,1,429,65,lo,lo
Axcpt,155938,wave2,proactive,AY,1,2,0,195,66,,
Axcpt,155938,wave2,proactive,BY,1,1,1,383,67,lo,lo
Axcpt,155938,wave2,proactive,Bng,,,1,0,68,,
Axcpt,155938,wave2,proactive,AX,2,2,1,305,69,,
Axcpt,155938,wave2,proactive,AX,2,2,1,347,70,,
Axcpt,155938,wave2,proactive,Ang,,,1,0,71,,
Axcpt,155938,wave2,proactive,BY,1,1,1,325,72,lo,lo
Axcpt,155938,wave2,proactive,Ang,,,1,0,73,,
Axcpt,155938,wave2,proactive,BX,1,1,1,426,74,hi,hi
Axcpt,155938,wave2,proactive,AX,2,2,1,477,75,,
Axcpt,155938,wave2,proactive,Bng,,,1,0,76,,
Axcpt,155938,wave2,proactive,AX,2,2,1,394,77,,
Axcpt,155938,wave2,proactive,BY,1,1,1,272,78,lo,lo
Axcpt,155938,wave2,proactive,AY,1,2,0,468,79,,
Axcpt,155938,wave2,proactive,AX,2,2,1,327,80,,
Axcpt,155938,wave2,proactive,AX,2,2,1,435,81,,
Axcpt,155938,wave2,proactive,BY,1,1,1,394,82,lo,lo
Axcpt,155938,wave2,proactive,BY,1,1,1,360,83,lo,lo
Axcpt,155938,wave2,proactive,BY,1,1,1,311,84,lo,lo
Axcpt,155938,wave2,proactive,AY,1,2,0,515,85,,
Axcpt,155938,wave2,proactive,BX,1,1,1,214,86,hi,hi
Axcpt,155938,wave2,proactive,BY,1,1,1,323,87,lo,lo
Axcpt,155938,wave2,proactive,AX,2,2,1,339,88,,
Axcpt,155938,wave2,proactive,Bng,,1,0,233,89,,
Axcpt,155938,wave2,proactive,BY,1,1,1,320,90,lo,lo
Axcpt,155938,wave2,proactive,AX,2,2,1,336,91,,
Axcpt,155938,wave2,proactive,Ang,,,1,0,92,,
Axcpt,155938,wave2,proactive,AX,2,2,1,379,93,,
Axcpt,155938,wave2,proactive,BY,1,1,1,256,94,lo,lo
Axcpt,155938,wave2,proactive,BY,1,1,1,446,95,lo,lo
Axcpt,155938,wave2,proactive,AX,2,2,1,391,96,,
Axcpt,155938,wave2,proactive,BY,1,1,1,271,97,lo,lo
Axcpt,155938,wave2,proactive,AY,1,1,1,860,98,,
Axcpt,155938,wave2,proactive,AX,2,2,1,350,99,,
Axcpt,155938,wave2,proactive,BY,1,1,1,234,100,lo,lo
Axcpt,155938,wave2,proactive,AX,2,2,1,312,101,,
Axcpt,155938,wave2,proactive,AX,2,2,1,386,102,,
Axcpt,155938,wave2,proactive,BY,1,1,1,271,103,lo,lo
Axcpt,155938,wave2,proactive,AX,2,2,1,275,104,,
Axcpt,155938,wave2,proactive,AY,1,1,1,503,105,,
Axcpt,155938,wave2,proactive,AX,2,2,1,316,106,,
Axcpt,155938,wave2,proactive,Ang,,1,0,632,107,,
Axcpt,155938,wave2,proactive,AX,2,2,1,278,108,,
Axcpt,155938,wave2,proactive,BY,1,1,1,134,109,lo,lo
Axcpt,155938,wave2,proactive,AX,2,2,1,361,110,,
Axcpt,155938,wave2,proactive,Bng,,1,0,117,111,,
Axcpt,155938,wave2,proactive,BX,1,1,1,296,112,hi,hi
Axcpt,155938,wave2,proactive,BY,1,1,1,328,113,lo,lo
Axcpt,155938,wave2,proactive,Ang,,1,0,727,114,,
Axcpt,155938,wave2,proactive,BY,1,1,1,580,115,lo,lo
Axcpt,155938,wave2,proactive,Bng,,,1,0,116,,
Axcpt,155938,wave2,proactive,BX,1,2,0,453,117,hi,hi
Axcpt,155938,wave2,proactive,BY,1,1,1,405,118,lo,lo
Axcpt,155938,wave2,proactive,AX,2,2,1,287,119,,
Axcpt,155938,wave2,proactive,BY,1,1,1,447,120,lo,lo
Axcpt,155938,wave2,proactive,BY,1,1,1,293,121,lo,lo
Axcpt,155938,wave2,proactive,BY,1,1,1,224,122,lo,lo
Axcpt,155938,wave2,proactive,BY,1,1,1,301,123,lo,lo
Axcpt,155938,wave2,proactive,Ang,,,1,0,124,,
Axcpt,155938,wave2,proactive,AX,2,2,1,344,125,,
Axcpt,155938,wave2,proactive,AY,1,1,1,747,126,,
Axcpt,155938,wave2,proactive,AX,2,2,1,328,127,,
Axcpt,155938,wave2,proactive,BY,1,1,1,224,128,lo,lo
Axcpt,155938,wave2,proactive,Bng,,,1,0,129,,
Axcpt,155938,wave2,proactive,Ang,,,1,0,130,,
Axcpt,155938,wave2,proactive,AX,2,2,1,343,131,,
Axcpt,155938,wave2,proactive,AY,1,1,1,423,132,,
Axcpt,155938,wave2,proactive,AX,2,2,1,357,133,,
Axcpt,155938,wave2,proactive,BY,1,1,1,306,134,lo,lo
Axcpt,155938,wave2,proactive,AX,2,2,1,259,135,,
Axcpt,155938,wave2,proactive,BY,1,1,1,394,136,lo,lo
Axcpt,155938,wave2,proactive,BY,1,1,1,327,137,lo,lo
Axcpt,155938,wave2,proactive,BX,1,1,1,352,138,hi,hi
Axcpt,155938,wave2,proactive,Bng,,1,0,338,139,,
Axcpt,155938,wave2,proactive,BY,1,1,1,374,140,lo,lo
Axcpt,155938,wave2,proactive,AX,2,2,1,412,141,,
Axcpt,155938,wave2,proactive,AX,2,2,1,408,142,,
Axcpt,155938,wave2,proactive,BX,1,1,1,206,143,hi,hi
Axcpt,155938,wave2,proactive,AX,2,2,1,276,144,,
Axcpt,155938,wave2,reactive,Ang,,,1,0,1,,
Axcpt,155938,wave2,reactive,AX,2,2,1,364,2,,
Axcpt,155938,wave2,reactive,AX,2,1,0,765,3,,
Axcpt,155938,wave2,reactive,AX,2,2,1,467,4,,
Axcpt,155938,wave2,reactive,BY,1,1,1,1109,5,lo,lo
Axcpt,155938,wave2,reactive,AX,2,2,1,649,6,,
Axcpt,155938,wave2,reactive,BY,1,1,1,452,7,lo,lo
Axcpt,155938,wave2,reactive,AX,2,2,1,300,8,,
Axcpt,155938,wave2,reactive,Ang,,,1,0,9,,
Axcpt,155938,wave2,reactive,BY,1,1,1,448,10,lo,lo
Axcpt,155938,wave2,reactive,BX,1,1,1,821,11,hi,hi
Axcpt,155938,wave2,reactive,BY,1,1,1,493,12,lo,lo
Axcpt,155938,wave2,reactive,AY,1,1,1,518,13,,
Axcpt,155938,wave2,reactive,Bng,,,1,0,14,,
Axcpt,155938,wave2,reactive,BX,1,1,1,741,15,hi,hi
Axcpt,155938,wave2,reactive,AY,1,1,1,521,16,,
Axcpt,155938,wave2,reactive,AX,2,2,1,364,17,,
Axcpt,155938,wave2,reactive,AX,2,2,1,423,18,,
Axcpt,155938,wave2,reactive,AX,2,2,1,351,19,,
Axcpt,155938,wave2,reactive,BY,1,1,1,263,20,lo,lo
Axcpt,155938,wave2,reactive,BY,1,1,1,334,21,lo,lo
Axcpt,155938,wave2,reactive,BY,1,1,1,449,22,lo,lo
Axcpt,155938,wave2,reactive,BY,1,1,1,402,23,lo,lo
Axcpt,155938,wave2,reactive,Bng,,,1,0,24,,
Axcpt,155938,wave2,reactive,AX,2,2,1,418,25,,
Axcpt,155938,wave2,reactive,AX,2,2,1,301,26,,
Axcpt,155938,wave2,reactive,BX,1,1,1,327,27,hi,hi
Axcpt,155938,wave2,reactive,AX,2,2,1,473,28,,
Axcpt,155938,wave2,reactive,BY,1,1,1,462,29,lo,lo
Axcpt,155938,wave2,reactive,BX,1,1,1,736,30,hi,hi
Axcpt,155938,wave2,reactive,Ang,,,1,0,31,,
Axcpt,155938,wave2,reactive,AY,1,2,0,676,32,,
Axcpt,155938,wave2,reactive,AY,1,1,1,460,33,,
Axcpt,155938,wave2,reactive,BY,1,1,1,371,34,lo,lo
Axcpt,155938,wave2,reactive,Bng,,,1,0,35,,
Axcpt,155938,wave2,reactive,BY,1,1,1,384,36,lo,lo
Axcpt,155938,wave2,reactive,BY,1,1,1,281,37,lo,lo
Axcpt,155938,wave2,reactive,AX,2,2,1,328,38,,
Axcpt,155938,wave2,reactive,AX,2,2,1,685,39,,
Axcpt,155938,wave2,reactive,AX,2,2,1,574,40,,
Axcpt,155938,wave2,reactive,BY,1,1,1,341,41,lo,lo
Axcpt,155938,wave2,reactive,BY,1,1,1,598,42,lo,lo
Axcpt,155938,wave2,reactive,BY,1,1,1,523,43,lo,lo
Axcpt,155938,wave2,reactive,BY,1,1,1,490,44,lo,lo
Axcpt,155938,wave2,reactive,AX,2,2,1,318,45,,
Axcpt,155938,wave2,reactive,Ang,,,1,0,46,,
Axcpt,155938,wave2,reactive,Bng,,,1,0,47,,
Axcpt,155938,wave2,reactive,AX,2,2,1,319,48,,
Axcpt,155938,wave2,reactive,BY,1,1,1,396,49,lo,lo
Axcpt,155938,wave2,reactive,Ang,,,1,0,50,,
Axcpt,155938,wave2,reactive,AX,2,2,1,379,51,,
Axcpt,155938,wave2,reactive,Bng,,,1,0,52,,
Axcpt,155938,wave2,reactive,AX,2,2,1,434,53,,
Axcpt,155938,wave2,reactive,AY,1,1,1,829,54,,
Axcpt,155938,wave2,reactive,BY,1,1,1,271,55,lo,lo
Axcpt,155938,wave2,reactive,AX,2,2,1,310,56,,
Axcpt,155938,wave2,reactive,BY,1,,0,0,57,lo,lo
Axcpt,155938,wave2,reactive,BY,1,,0,0,58,lo,lo
Axcpt,155938,wave2,reactive,BX,1,1,1,972,59,hi,hi
Axcpt,155938,wave2,reactive,AX,2,2,1,344,60,,
Axcpt,155938,wave2,reactive,Bng,,,1,0,61,,
Axcpt,155938,wave2,reactive,BY,1,1,1,414,62,lo,lo
Axcpt,155938,wave2,reactive,AX,2,2,1,614,63,,
Axcpt,155938,wave2,reactive,AX,2,1,0,702,64,,
Axcpt,155938,wave2,reactive,BX,1,1,1,487,65,hi,hi
Axcpt,155938,wave2,reactive,AX,2,2,1,297,66,,
Axcpt,155938,wave2,reactive,AX,2,2,1,716,67,,
Axcpt,155938,wave2,reactive,BY,1,,0,0,68,lo,lo
Axcpt,155938,wave2,reactive,AY,1,1,1,450,69,,
Axcpt,155938,wave2,reactive,BY,1,1,1,366,70,lo,lo
Axcpt,155938,wave2,reactive,Ang,,,1,0,71,,
Axcpt,155938,wave2,reactive,BY,1,1,1,412,72,lo,lo
Axcpt,155938,wave2,reactive,AX,2,2,1,347,73,,
Axcpt,155938,wave2,reactive,AX,2,2,1,288,74,,
Axcpt,155938,wave2,reactive,BY,1,1,1,656,75,lo,lo
Axcpt,155938,wave2,reactive,Ang,,,1,0,76,,
Axcpt,155938,wave2,reactive,BY,1,1,1,613,77,lo,lo
Axcpt,155938,wave2,reactive,Bng,,,1,0,78,,
Axcpt,155938,wave2,reactive,AX,2,2,1,427,79,,
Axcpt,155938,wave2,reactive,BY,1,1,1,238,80,lo,lo
Axcpt,155938,wave2,reactive,BY,1,1,1,320,81,lo,lo
Axcpt,155938,wave2,reactive,AY,1,1,1,883,82,,
Axcpt,155938,wave2,reactive,BX,1,1,1,578,83,hi,hi
Axcpt,155938,wave2,reactive,AX,2,2,1,381,84,,
Axcpt,155938,wave2,reactive,BY,1,1,1,266,85,lo,lo
Axcpt,155938,wave2,reactive,BY,1,1,1,295,86,lo,lo
Axcpt,155938,wave2,reactive,Ang,,,1,0,87,,
Axcpt,155938,wave2,reactive,AX,2,1,0,460,88,,
Axcpt,155938,wave2,reactive,BY,1,1,1,438,89,lo,lo
Axcpt,155938,wave2,reactive,AX,2,2,1,381,90,,
Axcpt,155938,wave2,reactive,AY,1,1,1,455,91,,
Axcpt,155938,wave2,reactive,AX,2,2,1,353,92,,
Axcpt,155938,wave2,reactive,BX,1,1,1,371,93,hi,hi
Axcpt,155938,wave2,reactive,AX,2,2,1,329,94,,
Axcpt,155938,wave2,reactive,BY,1,1,1,1327,95,lo,lo
Axcpt,155938,wave2,reactive,Bng,,,1,0,96,,
Axcpt,155938,wave2,reactive,BY,1,1,1,381,97,lo,lo
Axcpt,155938,wave2,reactive,AX,2,1,0,457,98,,
Axcpt,155938,wave2,reactive,AY,1,1,1,627,99,,
Axcpt,155938,wave2,reactive,BY,1,1,1,452,100,lo,lo
Axcpt,155938,wave2,reactive,AX,2,2,1,322,101,,
Axcpt,155938,wave2,reactive,Ang,,1,0,289,102,,
Axcpt,155938,wave2,reactive,AY,1,1,1,494,103,,
Axcpt,155938,wave2,reactive,Bng,,,1,0,104,,
Axcpt,155938,wave2,reactive,Ang,,,1,0,105,,
Axcpt,155938,wave2,reactive,AX,2,2,1,428,106,,
Axcpt,155938,wave2,reactive,BX,1,1,1,389,107,hi,hi
Axcpt,155938,wave2,reactive,BY,1,1,1,338,108,lo,lo
Axcpt,155938,wave2,reactive,BY,1,1,1,359,109,lo,lo
Axcpt,155938,wave2,reactive,BY,1,1,1,341,110,lo,lo
Axcpt,155938,wave2,reactive,AX,2,2,1,272,111,,
Axcpt,155938,wave2,reactive,BY,1,1,1,411,112,lo,lo
Axcpt,155938,wave2,reactive,BY,1,1,1,682,113,lo,lo
Axcpt,155938,wave2,reactive,BX,1,1,1,793,114,hi,hi
Axcpt,155938,wave2,reactive,AX,2,2,1,309,115,,
Axcpt,155938,wave2,reactive,AX,2,2,1,660,116,,
Axcpt,155938,wave2,reactive,AX,2,2,1,269,117,,
Axcpt,155938,wave2,reactive,Bng,,,1,0,118,,
Axcpt,155938,wave2,reactive,AX,2,2,1,411,119,,
Axcpt,155938,wave2,reactive,BY,1,1,1,645,120,lo,lo
Axcpt,155938,wave2,reactive,Bng,,,1,0,121,,
Axcpt,155938,wave2,reactive,Ang,,1,0,393,122,,
Axcpt,155938,wave2,reactive,AY,1,1,1,520,123,,
Axcpt,155938,wave2,reactive,BY,1,1,1,418,124,lo,lo
Axcpt,155938,wave2,reactive,BY,1,1,1,303,125,lo,lo
Axcpt,155938,wave2,reactive,AX,2,2,1,332,126,,
Axcpt,155938,wave2,reactive,BY,1,1,1,520,127,lo,lo
Axcpt,155938,wave2,reactive,AX,2,2,1,242,128,,
Axcpt,155938,wave2,reactive,AX,2,2,1,305,129,,
Axcpt,155938,wave2,reactive,Ang,,,1,0,130,,
Axcpt,155938,wave2,reactive,AY,1,1,1,529,131,,
Axcpt,155938,wave2,reactive,AX,2,2,1,330,132,,
Axcpt,155938,wave2,reactive,BY,1,1,1,410,133,lo,lo
Axcpt,155938,wave2,reactive,BX,1,1,1,433,134,hi,hi
Axcpt,155938,wave2,reactive,AX,2,2,1,313,135,,
Axcpt,155938,wave2,reactive,BY,1,1,1,332,136,lo,lo
Axcpt,155938,wave2,reactive,BX,1,1,1,316,137,hi,hi
Axcpt,155938,wave2,reactive,BY,1,1,1,239,138,lo,lo
Axcpt,155938,wave2,reactive,BY,1,1,1,297,139,lo,lo
Axcpt,155938,wave2,reactive,Bng,,1,0,304,140,,
Axcpt,155938,wave2,reactive,AX,2,2,1,318,141,,
Axcpt,155938,wave2,reactive,BY,1,1,1,317,142,lo,lo
Axcpt,155938,wave2,reactive,AX,2,2,1,249,143,,
Axcpt,155938,wave2,reactive,AX,2,2,1,290,144,,
Axcpt,178647,wave1,baseline,AX,2,2,1,558,1,,
Axcpt,178647,wave1,baseline,BY,1,1,1,618,2,lo,lo
Axcpt,178647,wave1,baseline,BX,1,2,0,572,3,hi,hi
Axcpt,178647,wave1,baseline,BX,1,1,1,528,4,hi,hi
Axcpt,178647,wave1,baseline,AX,2,2,1,419,5,,
Axcpt,178647,wave1,baseline,BY,1,1,1,634,6,lo,lo
Axcpt,178647,wave1,baseline,BY,1,1,1,503,7,lo,lo
Axcpt,178647,wave1,baseline,Ang,,1,0,467,8,,
Axcpt,178647,wave1,baseline,AX,2,2,1,545,9,,
Axcpt,178647,wave1,baseline,AY,1,1,1,463,10,,
Axcpt,178647,wave1,baseline,BY,1,1,1,417,11,lo,lo
Axcpt,178647,wave1,baseline,Bng,,1,0,376,12,,
Axcpt,178647,wave1,baseline,BY,1,1,1,435,13,lo,lo
Axcpt,178647,wave1,baseline,AY,1,1,1,854,14,,
Axcpt,178647,wave1,baseline,BY,1,1,1,500,15,lo,lo
Axcpt,178647,wave1,baseline,Bng,,,1,0,16,,
Axcpt,178647,wave1,baseline,AX,2,2,1,505,17,,
Axcpt,178647,wave1,baseline,Ang,,,1,0,18,,
Axcpt,178647,wave1,baseline,AX,2,2,1,368,19,,
Axcpt,178647,wave1,baseline,AX,2,2,1,399,20,,
Axcpt,178647,wave1,baseline,AX,2,2,1,540,21,,
Axcpt,178647,wave1,baseline,BY,1,1,1,563,22,lo,lo
Axcpt,178647,wave1,baseline,AX,2,2,1,540,23,,
Axcpt,178647,wave1,baseline,BY,1,1,1,373,24,lo,lo
Axcpt,178647,wave1,baseline,Bng,,,1,0,25,,
Axcpt,178647,wave1,baseline,AX,2,2,1,701,26,,
Axcpt,178647,wave1,baseline,AX,2,2,1,402,27,,
Axcpt,178647,wave1,baseline,BY,1,1,1,471,28,lo,lo
Axcpt,178647,wave1,baseline,BY,1,1,1,669,29,lo,lo
Axcpt,178647,wave1,baseline,Ang,,,1,0,30,,
Axcpt,178647,wave1,baseline,BX,1,2,0,552,31,hi,hi
Axcpt,178647,wave1,baseline,BY,1,1,1,508,32,lo,lo
Axcpt,178647,wave1,baseline,BY,1,1,1,480,33,lo,lo
Axcpt,178647,wave1,baseline,AX,2,2,1,440,34,,
Axcpt,178647,wave1,baseline,AX,2,2,1,682,35,,
Axcpt,178647,wave1,baseline,Bng,,,1,0,36,,
Axcpt,178647,wave1,baseline,Ang,,,1,0,37,,
Axcpt,178647,wave1,baseline,AX,2,2,1,945,38,,
Axcpt,178647,wave1,baseline,BY,1,1,1,570,39,lo,lo
Axcpt,178647,wave1,baseline,AY,1,1,1,567,40,,
Axcpt,178647,wave1,baseline,BY,1,1,1,512,41,lo,lo
Axcpt,178647,wave1,baseline,BY,1,1,1,529,42,lo,lo
Axcpt,178647,wave1,baseline,AX,2,2,1,627,43,,
Axcpt,178647,wave1,baseline,BX,1,1,1,940,44,hi,hi
Axcpt,178647,wave1,baseline,AX,2,2,1,445,45,,
Axcpt,178647,wave1,baseline,AX,2,2,1,515,46,,
Axcpt,178647,wave1,baseline,BY,1,1,1,589,47,lo,lo
Axcpt,178647,wave1,baseline,AY,1,1,1,605,48,,
Axcpt,178647,wave1,baseline,AX,2,2,1,533,49,,
Axcpt,178647,wave1,baseline,Bng,,,1,0,50,,
Axcpt,178647,wave1,baseline,BY,1,1,1,414,51,lo,lo
Axcpt,178647,wave1,baseline,Bng,,,1,0,52,,
Axcpt,178647,wave1,baseline,BY,1,1,1,404,53,lo,lo
Axcpt,178647,wave1,baseline,AX,2,2,1,499,54,,
Axcpt,178647,wave1,baseline,BY,1,1,1,412,55,lo,lo
Axcpt,178647,wave1,baseline,AX,2,2,1,478,56,,
Axcpt,178647,wave1,baseline,AX,2,2,1,612,57,,
Axcpt,178647,wave1,baseline,AY,1,1,1,807,58,,
Axcpt,178647,wave1,baseline,BX,1,1,1,666,59,hi,hi
Axcpt,178647,wave1,baseline,BY,1,1,1,424,60,lo,lo
Axcpt,178647,wave1,baseline,AX,2,1,0,562,61,,
Axcpt,178647,wave1,baseline,Ang,,,1,0,62,,
Axcpt,178647,wave1,baseline,Ang,,,1,0,63,,
Axcpt,178647,wave1,baseline,BY,1,1,1,500,64,lo,lo
Axcpt,178647,wave1,baseline,AX,2,2,1,449,65,,
Axcpt,178647,wave1,baseline,BX,1,1,1,646,66,hi,hi
Axcpt,178647,wave1,baseline,BY,1,1,1,403,67,lo,lo
Axcpt,178647,wave1,baseline,BY,1,1,1,476,68,lo,lo
Axcpt,178647,wave1,baseline,AX,2,2,1,563,69,,
Axcpt,178647,wave1,baseline,AY,1,1,1,563,70,,
Axcpt,178647,wave1,baseline,AX,2,2,1,500,71,,
Axcpt,178647,wave1,baseline,BY,1,1,1,374,72,lo,lo
Axcpt,178647,wave1,baseline,BX,1,1,1,725,73,hi,hi
Axcpt,178647,wave1,baseline,BY,1,1,1,423,74,lo,lo
Axcpt,178647,wave1,baseline,Bng,,,1,0,75,,
Axcpt,178647,wave1,baseline,AX,2,2,1,531,76,,
Axcpt,178647,wave1,baseline,AX,2,2,1,424,77,,
Axcpt,178647,wave1,baseline,BY,1,1,1,578,78,lo,lo
Axcpt,178647,wave1,baseline,AY,1,1,1,694,79,,
Axcpt,178647,wave1,baseline,BY,1,1,1,398,80,lo,lo
Axcpt,178647,wave1,baseline,Bng,,,1,0,81,,
Axcpt,178647,wave1,baseline,BY,1,1,1,378,82,lo,lo
Axcpt,178647,wave1,baseline,Ang,,,1,0,83,,
Axcpt,178647,wave1,baseline,BX,1,1,1,759,84,hi,hi
Axcpt,178647,wave1,baseline,AX,2,1,0,390,85,,
Axcpt,178647,wave1,baseline,AX,2,2,1,430,86,,
Axcpt,178647,wave1,baseline,BY,1,1,1,592,87,lo,lo
Axcpt,178647,wave1,baseline,Ang,,,1,0,88,,
Axcpt,178647,wave1,baseline,BY,1,1,1,502,89,lo,lo
Axcpt,178647,wave1,baseline,AY,1,1,1,423,90,,
Axcpt,178647,wave1,baseline,AX,2,2,1,524,91,,
Axcpt,178647,wave1,baseline,AX,2,2,1,322,92,,
Axcpt,178647,wave1,baseline,AX,2,2,1,378,93,,
Axcpt,178647,wave1,baseline,BY,1,1,1,323,94,lo,lo
Axcpt,178647,wave1,baseline,BY,1,1,1,390,95,lo,lo
Axcpt,178647,wave1,baseline,AX,2,1,0,423,96,,
Axcpt,178647,wave1,baseline,BY,1,1,1,412,97,lo,lo
Axcpt,178647,wave1,baseline,BY,1,1,1,374,98,lo,lo
Axcpt,178647,wave1,baseline,AX,2,2,1,414,99,,
Axcpt,178647,wave1,baseline,AX,2,2,1,366,100,,
Axcpt,178647,wave1,baseline,AY,1,1,1,564,101,,
Axcpt,178647,wave1,baseline,AX,2,2,1,357,102,,
Axcpt,178647,wave1,baseline,Ang,,1,0,459,103,,
Axcpt,178647,wave1,baseline,BY,1,1,1,632,104,lo,lo
Axcpt,178647,wave1,baseline,Ang,,,1,0,105,,
Axcpt,178647,wave1,baseline,BY,1,1,1,336,106,lo,lo
Axcpt,178647,wave1,baseline,BX,1,1,1,333,107,hi,hi
Axcpt,178647,wave1,baseline,AX,2,2,1,388,108,,
Axcpt,178647,wave1,baseline,Bng,,1,0,394,109,,
Axcpt,178647,wave1,baseline,BY,1,1,1,493,110,lo,lo
Axcpt,178647,wave1,baseline,AX,2,2,1,410,111,,
Axcpt,178647,wave1,baseline,AY,1,2,0,367,112,,
Axcpt,178647,wave1,baseline,AX,2,2,1,516,113,,
Axcpt,178647,wave1,baseline,AX,2,2,1,623,114,,
Axcpt,178647,wave1,baseline,BY,1,1,1,690,115,lo,lo
Axcpt,178647,wave1,baseline,Bng,,1,0,402,116,,
Axcpt,178647,wave1,baseline,BY,1,1,1,530,117,lo,lo
Axcpt,178647,wave1,baseline,BX,1,1,1,376,118,hi,hi
Axcpt,178647,wave1,baseline,AX,2,2,1,700,119,,
Axcpt,178647,wave1,baseline,BY,1,1,1,449,120,lo,lo
Axcpt,178647,wave1,baseline,AX,2,2,1,490,121,,
Axcpt,178647,wave1,baseline,Bng,,,1,0,122,,
Axcpt,178647,wave1,baseline,BY,1,1,1,495,123,lo,lo
Axcpt,178647,wave1,baseline,AX,2,2,1,754,124,,
Axcpt,178647,wave1,baseline,BX,1,1,1,662,125,hi,hi
Axcpt,178647,wave1,baseline,Ang,,,1,0,126,,
Axcpt,178647,wave1,baseline,BY,1,1,1,398,127,lo,lo
Axcpt,178647,wave1,baseline,AX,2,2,1,590,128,,
Axcpt,178647,wave1,baseline,BY,1,1,1,1008,129,lo,lo
Axcpt,178647,wave1,baseline,BY,1,1,1,431,130,lo,lo
Axcpt,178647,wave1,baseline,AX,2,2,1,327,131,,
Axcpt,178647,wave1,baseline,Bng,,,1,0,132,,
Axcpt,178647,wave1,baseline,AX,2,2,1,616,133,,
Axcpt,178647,wave1,baseline,AY,1,1,1,573,134,,
Axcpt,178647,wave1,baseline,Ang,,,1,0,135,,
Axcpt,178647,wave1,baseline,BY,1,1,1,455,136,lo,lo
Axcpt,178647,wave1,baseline,BY,1,1,1,407,137,lo,lo
Axcpt,178647,wave1,baseline,AX,2,2,1,901,138,,
Axcpt,178647,wave1,baseline,BY,1,1,1,490,139,lo,lo
Axcpt,178647,wave1,baseline,BY,1,1,1,452,140,lo,lo
Axcpt,178647,wave1,baseline,BX,1,1,1,790,141,hi,hi
Axcpt,178647,wave1,baseline,AX,2,2,1,468,142,,
Axcpt,178647,wave1,baseline,AX,2,2,1,420,143,,
Axcpt,178647,wave1,baseline,AY,1,1,1,573,144,,
Axcpt,178647,wave1,proactive,Ang,,1,0,494,1,,
Axcpt,178647,wave1,proactive,BY,1,1,1,453,2,lo,lo
Axcpt,178647,wave1,proactive,AX,2,2,1,428,3,,
Axcpt,178647,wave1,proactive,AX,2,2,1,418,4,,
Axcpt,178647,wave1,proactive,AX,2,2,1,355,5,,
Axcpt,178647,wave1,proactive,BY,1,1,1,353,6,lo,lo
Axcpt,178647,wave1,proactive,BY,1,1,1,356,7,lo,lo
Axcpt,178647,wave1,proactive,AX,2,2,1,350,8,,
Axcpt,178647,wave1,proactive,BY,1,1,1,337,9,lo,lo
Axcpt,178647,wave1,proactive,Ang,,,1,0,10,,
Axcpt,178647,wave1,proactive,BY,1,1,1,442,11,lo,lo
Axcpt,178647,wave1,proactive,BX,1,2,0,777,12,hi,hi
Axcpt,178647,wave1,proactive,AX,2,2,1,331,13,,
Axcpt,178647,wave1,proactive,AX,2,2,1,276,14,,
Axcpt,178647,wave1,proactive,AX,2,2,1,357,15,,
Axcpt,178647,wave1,proactive,BY,1,1,1,728,16,lo,lo
Axcpt,178647,wave1,proactive,Bng,,,1,0,17,,
Axcpt,178647,wave1,proactive,BX,1,1,1,558,18,hi,hi
Axcpt,178647,wave1,proactive,AY,1,1,1,632,19,,
Axcpt,178647,wave1,proactive,AY,1,1,1,478,20,,
Axcpt,178647,wave1,proactive,BY,1,1,1,550,21,lo,lo
Axcpt,178647,wave1,proactive,BY,1,1,1,283,22,lo,lo
Axcpt,178647,wave1,proactive,AX,2,2,1,357,23,,
Axcpt,178647,wave1,proactive,Bng,,,1,0,24,,
Axcpt,178647,wave1,proactive,BX,1,1,1,536,25,hi,hi
Axcpt,178647,wave1,proactive,AX,2,2,1,324,26,,
Axcpt,178647,wave1,proactive,AX,2,2,1,528,27,,
Axcpt,178647,wave1,proactive,AX,2,2,1,461,28,,
Axcpt,178647,wave1,proactive,Ang,,,1,0,29,,
Axcpt,178647,wave1,proactive,Ang,,,1,0,30,,
Axcpt,178647,wave1,proactive,BY,1,1,1,623,31,lo,lo
Axcpt,178647,wave1,proactive,Bng,,,1,0,32,,
Axcpt,178647,wave1,proactive,AX,2,2,1,601,33,,
Axcpt,178647,wave1,proactive,AY,1,1,1,639,34,,
Axcpt,178647,wave1,proactive,AX,2,2,1,466,35,,
Axcpt,178647,wave1,proactive,BY,1,1,1,580,36,lo,lo
Axcpt,178647,wave1,proactive,BY,1,1,1,395,37,lo,lo
Axcpt,178647,wave1,proactive,BY,1,1,1,478,38,lo,lo
Axcpt,178647,wave1,proactive,BY,1,1,1,373,39,lo,lo
Axcpt,178647,wave1,proactive,BY,1,1,1,345,40,lo,lo
Axcpt,178647,wave1,proactive,BY,1,1,1,356,41,lo,lo
Axcpt,178647,wave1,proactive,BX,1,1,1,355,42,hi,hi
Axcpt,178647,wave1,proactive,AX,2,2,1,379,43,,
Axcpt,178647,wave1,proactive,AX,2,2,1,338,44,,
Axcpt,178647,wave1,proactive,AX,2,2,1,363,45,,
Axcpt,178647,wave1,proactive,Bng,,,1,0,46,,
Axcpt,178647,wave1,proactive,BY,1,1,1,504,47,lo,lo
Axcpt,178647,wave1,proactive,AY,1,1,1,993,48,,
Axcpt,178647,wave1,proactive,Bng,,,1,0,49,,
Axcpt,178647,wave1,proactive,AY,1,1,1,705,50,,
Axcpt,178647,wave1,proactive,Bng,,,1,0,51,,
Axcpt,178647,wave1,proactive,BY,1,1,1,412,52,lo,lo
Axcpt,178647,wave1,proactive,AX,2,2,1,495,53,,
Axcpt,178647,wave1,proactive,BY,1,1,1,546,54,lo,lo
Axcpt,178647,wave1,proactive,BY,1,1,1,687,55,lo,lo
Axcpt,178647,wave1,proactive,BY,1,1,1,317,56,lo,lo
Axcpt,178647,wave1,proactive,BX,1,,0,0,57,hi,hi
Axcpt,178647,wave1,proactive,BX,1,1,1,635,58,hi,hi
Axcpt,178647,wave1,proactive,Ang,,,1,0,59,,
Axcpt,178647,wave1,proactive,Ang,,,1,0,60,,
Axcpt,178647,wave1,proactive,AX,2,2,1,430,61,,
Axcpt,178647,wave1,proactive,AX,2,2,1,492,62,,
Axcpt,178647,wave1,proactive,AX,2,2,1,586,63,,
Axcpt,178647,wave1,proactive,BY,1,1,1,593,64,lo,lo
Axcpt,178647,wave1,proactive,AX,2,1,0,428,65,,
Axcpt,178647,wave1,proactive,BY,1,1,1,503,66,lo,lo
Axcpt,178647,wave1,proactive,BY,1,1,1,386,67,lo,lo
Axcpt,178647,wave1,proactive,AY,1,1,1,571,68,,
Axcpt,178647,wave1,proactive,BY,1,1,1,420,69,lo,lo
Axcpt,178647,wave1,proactive,AX,2,1,0,353,70,,
Axcpt,178647,wave1,proactive,AX,2,2,1,364,71,,
Axcpt,178647,wave1,proactive,AX,2,2,1,339,72,,
Axcpt,178647,wave1,proactive,BX,1,1,1,712,73,hi,hi
Axcpt,178647,wave1,proactive,BY,1,1,1,436,74,lo,lo
Axcpt,178647,wave1,proactive,BY,1,1,1,365,75,lo,lo
Axcpt,178647,wave1,proactive,Bng,,,1,0,76,,
Axcpt,178647,wave1,proactive,Ang,,,1,0,77,,
Axcpt,178647,wave1,proactive,BY,1,1,1,570,78,lo,lo
Axcpt,178647,wave1,proactive,AX,2,2,1,540,79,,
Axcpt,178647,wave1,proactive,AX,2,2,1,548,80,,
Axcpt,178647,wave1,proactive,BY,1,1,1,449,81,lo,lo
Axcpt,178647,wave1,proactive,AX,2,2,1,396,82,,
Axcpt,178647,wave1,proactive,AX,2,2,1,517,83,,
Axcpt,178647,wave1,proactive,Bng,,,1,0,84,,
Axcpt,178647,wave1,proactive,Ang,,,1,0,85,,
Axcpt,178647,wave1,proactive,AX,2,2,1,477,86,,
Axcpt,178647,wave1,proactive,BY,1,1,1,585,87,lo,lo
Axcpt,178647,wave1,proactive,AX,2,2,1,517,88,,
Axcpt,178647,wave1,proactive,BY,1,1,1,661,89,lo,lo
Axcpt,178647,wave1,proactive,AY,1,1,1,541,90,,
Axcpt,178647,wave1,proactive,BX,1,1,1,305,91,hi,hi
Axcpt,178647,wave1,proactive,AX,2,2,1,364,92,,
Axcpt,178647,wave1,proactive,AY,1,2,0,365,93,,
Axcpt,178647,wave1,proactive,BY,1,1,1,450,94,lo,lo
Axcpt,178647,wave1,proactive,BY,1,1,1,471,95,lo,lo
Axcpt,178647,wave1,proactive,AX,2,2,1,540,96,,
Axcpt,178647,wave1,proactive,BX,1,1,1,623,97,hi,hi
Axcpt,178647,wave1,proactive,AX,2,2,1,372,98,,
Axcpt,178647,wave1,proactive,BY,1,1,1,549,99,lo,lo
Axcpt,178647,wave1,proactive,AX,2,2,1,550,100,,
Axcpt,178647,wave1,proactive,AX,2,2,1,426,101,,
Axcpt,178647,wave1,proactive,AX,2,2,1,415,102,,
Axcpt,178647,wave1,proactive,Bng,,1,0,513,103,,
Axcpt,178647,wave1,proactive,Bng,,,1,0,104,,
Axcpt,178647,wave1,proactive,BY,1,1,1,490,105,lo,lo
Axcpt,178647,wave1,proactive,BY,1,1,1,409,106,lo,lo
Axcpt,178647,wave1,proactive,BX,1,1,1,76,107,hi,hi
Axcpt,178647,wave1,proactive,BY,1,2,0,377,108,lo,lo
Axcpt,178647,wave1,proactive,BY,1,1,1,434,109,lo,lo
Axcpt,178647,wave1,proactive,Ang,,,1,0,110,,
Axcpt,178647,wave1,proactive,AY,1,1,1,408,111,,
Axcpt,178647,wave1,proactive,Ang,,,1,0,112,,
Axcpt,178647,wave1,proactive,AX,2,2,1,546,113,,
Axcpt,178647,wave1,proactive,BY,1,1,1,570,114,lo,lo
Axcpt,178647,wave1,proactive,AX,2,2,1,536,115,,
Axcpt,178647,wave1,proactive,AY,1,1,1,666,116,,
Axcpt,178647,wave1,proactive,AX,2,2,1,518,117,,
Axcpt,178647,wave1,proactive,AX,2,2,1,435,118,,
Axcpt,178647,wave1,proactive,BY,1,1,1,340,119,lo,lo
Axcpt,178647,wave1,proactive,BY,1,1,1,853,120,lo,lo
Axcpt,178647,wave1,proactive,BY,1,1,1,575,121,lo,lo
Axcpt,178647,wave1,proactive,AX,2,2,1,491,122,,
Axcpt,178647,wave1,proactive,AX,2,2,1,484,123,,
Axcpt,178647,wave1,proactive,Ang,,,1,0,124,,
Axcpt,178647,wave1,proactive,BY,1,1,1,517,125,lo,lo
Axcpt,178647,wave1,proactive,BX,1,1,1,553,126,hi,hi
Axcpt,178647,wave1,proactive,BX,1,1,1,416,127,hi,hi
Axcpt,178647,wave1,proactive,Ang,,,1,0,128,,
Axcpt,178647,wave1,proactive,BY,1,1,1,607,129,lo,lo
Axcpt,178647,wave1,proactive,Bng,,,1,0,130,,
Axcpt,178647,wave1,proactive,AX,2,2,1,530,131,,
Axcpt,178647,wave1,proactive,BY,1,1,1,521,132,lo,lo
Axcpt,178647,wave1,proactive,BY,1,1,1,312,133,lo,lo
Axcpt,178647,wave1,proactive,AX,2,1,0,469,134,,
Axcpt,178647,wave1,proactive,AX,2,2,1,416,135,,
Axcpt,178647,wave1,proactive,AX,2,2,1,570,136,,
Axcpt,178647,wave1,proactive,AX,2,2,1,298,137,,
Axcpt,178647,wave1,proactive,AX,2,2,1,337,138,,
Axcpt,178647,wave1,proactive,AY,1,2,0,692,139,,
Axcpt,178647,wave1,proactive,Bng,,,1,0,140,,
Axcpt,178647,wave1,proactive,BY,1,1,1,653,141,lo,lo
Axcpt,178647,wave1,proactive,AY,1,1,1,574,142,,
Axcpt,178647,wave1,proactive,BY,1,1,1,430,143,lo,lo
Axcpt,178647,wave1,proactive,BY,1,1,1,534,144,lo,lo
Axcpt,178647,wave1,reactive,AX,2,2,1,547,1,,
Axcpt,178647,wave1,reactive,Ang,,,1,0,2,,
Axcpt,178647,wave1,reactive,AX,2,2,1,656,3,,
Axcpt,178647,wave1,reactive,BX,1,1,1,449,4,hi,hi
Axcpt,178647,wave1,reactive,BY,1,1,1,667,5,lo,lo
Axcpt,178647,wave1,reactive,BY,1,1,1,505,6,lo,lo
Axcpt,178647,wave1,reactive,BY,1,1,1,461,7,lo,lo
Axcpt,178647,wave1,reactive,AY,1,1,1,651,8,,
Axcpt,178647,wave1,reactive,AX,2,2,1,526,9,,
Axcpt,178647,wave1,reactive,BY,1,1,1,453,10,lo,lo
Axcpt,178647,wave1,reactive,AX,2,2,1,510,11,,
Axcpt,178647,wave1,reactive,AX,2,2,1,506,12,,
Axcpt,178647,wave1,reactive,AX,2,2,1,571,13,,
Axcpt,178647,wave1,reactive,Bng,,,1,0,14,,
Axcpt,178647,wave1,reactive,BY,1,1,1,872,15,lo,lo
Axcpt,178647,wave1,reactive,AY,1,1,1,520,16,,
Axcpt,178647,wave1,reactive,BY,1,1,1,492,17,lo,lo
Axcpt,178647,wave1,reactive,BX,1,1,1,440,18,hi,hi
Axcpt,178647,wave1,reactive,BY,1,1,1,480,19,lo,lo
Axcpt,178647,wave1,reactive,AX,2,2,1,716,20,,
Axcpt,178647,wave1,reactive,BY,1,1,1,431,21,lo,lo
Axcpt,178647,wave1,reactive,Ang,,,1,0,22,,
Axcpt,178647,wave1,reactive,AX,2,2,1,689,23,,
Axcpt,178647,wave1,reactive,Bng,,,1,0,24,,
Axcpt,178647,wave1,reactive,BY,1,1,1,563,25,lo,lo
Axcpt,178647,wave1,reactive,AX,2,2,1,451,26,,
Axcpt,178647,wave1,reactive,BX,1,1,1,801,27,hi,hi
Axcpt,178647,wave1,reactive,Bng,,,1,0,28,,
Axcpt,178647,wave1,reactive,BY,1,1,1,499,29,lo,lo
Axcpt,178647,wave1,reactive,AX,2,2,1,555,30,,
Axcpt,178647,wave1,reactive,AX,2,2,1,559,31,,
Axcpt,178647,wave1,reactive,BY,1,1,1,519,32,lo,lo
Axcpt,178647,wave1,reactive,BY,1,1,1,413,33,lo,lo
Axcpt,178647,wave1,reactive,AX,2,2,1,364,34,,
Axcpt,178647,wave1,reactive,BX,1,1,1,952,35,hi,hi
Axcpt,178647,wave1,reactive,AX,2,2,1,697,36,,
Axcpt,178647,wave1,reactive,AX,2,2,1,393,37,,
Axcpt,178647,wave1,reactive,Ang,,,1,0,38,,
Axcpt,178647,wave1,reactive,AX,2,2,1,349,39,,
Axcpt,178647,wave1,reactive,BY,1,1,1,455,40,lo,lo
Axcpt,178647,wave1,reactive,Ang,,,1,0,41,,
Axcpt,178647,wave1,reactive,BY,1,1,1,500,42,lo,lo
Axcpt,178647,wave1,reactive,BY,1,1,1,488,43,lo,lo
Axcpt,178647,wave1,reactive,AY,1,1,1,899,44,,
Axcpt,178647,wave1,reactive,AY,1,1,1,575,45,,
Axcpt,178647,wave1,reactive,Bng,,,1,0,46,,
Axcpt,178647,wave1,reactive,AX,2,2,1,687,47,,
Axcpt,178647,wave1,reactive,BY,1,1,1,504,48,lo,lo
Axcpt,178647,wave1,reactive,AX,2,2,1,471,49,,
Axcpt,178647,wave1,reactive,AX,2,2,1,305,50,,
Axcpt,178647,wave1,reactive,Bng,,,1,0,51,,
Axcpt,178647,wave1,reactive,Ang,,,1,0,52,,
Axcpt,178647,wave1,reactive,AY,1,1,1,662,53,,
Axcpt,178647,wave1,reactive,Ang,,,1,0,54,,
Axcpt,178647,wave1,reactive,BY,1,1,1,643,55,lo,lo
Axcpt,178647,wave1,reactive,BY,1,1,1,392,56,lo,lo
Axcpt,178647,wave1,reactive,AX,2,2,1,532,57,,
Axcpt,178647,wave1,reactive,AX,2,2,1,377,58,,
Axcpt,178647,wave1,reactive,BY,1,1,1,567,59,lo,lo
Axcpt,178647,wave1,reactive,AX,2,2,1,606,60,,
Axcpt,178647,wave1,reactive,AX,2,2,1,360,61,,
Axcpt,178647,wave1,reactive,AX,2,2,1,602,62,,
Axcpt,178647,wave1,reactive,BY,1,1,1,423,63,lo,lo
Axcpt,178647,wave1,reactive,BY,1,1,1,782,64,lo,lo
Axcpt,178647,wave1,reactive,Bng,,,1,0,65,,
Axcpt,178647,wave1,reactive,BY,1,1,1,614,66,lo,lo
Axcpt,178647,wave1,reactive,AY,1,1,1,766,67,,
Axcpt,178647,wave1,reactive,BY,1,1,1,388,68,lo,lo
Axcpt,178647,wave1,reactive,BY,1,1,1,445,69,lo,lo
Axcpt,178647,wave1,reactive,AX,2,2,1,372,70,,
Axcpt,178647,wave1,reactive,BX,1,1,1,1072,71,hi,hi
Axcpt,178647,wave1,reactive,BX,1,1,1,468,72,hi,hi
Axcpt,178647,wave1,reactive,BY,1,1,1,667,73,lo,lo
Axcpt,178647,wave1,reactive,BY,1,1,1,370,74,lo,lo
Axcpt,178647,wave1,reactive,BY,1,1,1,409,75,lo,lo
