session,task,run,subj,name,trial.type,load,numtrials,probe,iti,acc,rt,resp,cresp,time.cue.onset.abs,time.target.onset.abs,time.rt.abs,time.scan.start,trial.num,time.cue.onset,time.target.onset,time.rt,time.block1.on,time.block2.on,time.block3.on,time.block1.off,time.block2.off,time.block3.off
bas,ste,1,130518,bas_ste_run1_130518,NP,5,3,syrup,1600,1,1230,1,1,121771,130570,131800,90964,1,30.807,39.606,40.836,28.408,256.421,484.418,228.026,456.023,684.02
bas,ste,1,130518,bas_ste_run1_130518,NN,8,2,scale,4000,1,1057,2,2,133786,142585,143642,90964,2,42.822,51.621,52.678,28.408,256.421,484.418,228.026,456.023,684.02
bas,ste,1,130518,bas_ste_run1_130518,NN,8,2,doll,1600,1,1004,2,2,148184,156982,157986,90964,3,57.22,66.018,67.022,28.408,256.421,484.418,228.026,456.023,684.02
bas,ste,1,130518,bas_ste_run1_130518,NP,5,3,threat,2800,1,1235,1,1,160182,168980,170215,90964,4,69.218,78.016,79.251,28.408,256.421,484.418,228.026,456.023,684.02
bas,ste,1,130518,bas_ste_run1_130518,NN,6,1,parrot,2800,1,824,2,2,173380,182178,183002,90964,5,82.416,91.214,92.038,28.408,256.421,484.418,228.026,456.023,684.02
bas,ste,1,130518,bas_ste_run1_130518,NP,8,2,chance,1600,1,939,1,1,186578,195376,196315,90964,6,95.614,104.412,105.351,28.408,256.421,484.418,228.026,456.023,684.02
bas,ste,1,130518,bas_ste_run1_130518,NN,5,2,blur,4000,1,1111,2,2,198576,207374,208485,90964,7,107.612,116.41,117.521,28.408,256.421,484.418,228.026,456.023,684.02
bas,ste,1,130518,bas_ste_run1_130518,NP,7,2,rash,2800,1,1060,1,1,212973,221772,222832,90964,8,122.009,130.808,131.868,28.408,256.421,484.418,228.026,456.023,684.02
bas,ste,1,130518,bas_ste_run1_130518,NN,5,2,tube,4000,1,979,2,2,226171,234970,235949,90964,9,135.207,144.006,144.985,28.408,256.421,484.418,228.026,456.023,684.02
bas,ste,1,130518,bas_ste_run1_130518,NP,5,3,share,4000,1,797,1,1,240586,249384,250181,90964,10,149.622,158.42,159.217,28.408,256.421,484.418,228.026,456.023,684.02
bas,ste,1,130518,bas_ste_run1_130518,NP,7,2,wealth,2800,1,923,1,1,254983,263782,264705,90964,11,164.019,172.818,173.741,28.408,256.421,484.418,228.026,456.023,684.02
bas,ste,1,130518,bas_ste_run1_130518,NP,8,2,bush,1600,0,1932,2,1,268181,276980,278912,90964,12,177.217,186.016,187.948,28.408,256.421,484.418,228.026,456.023,684.02
bas,ste,1,130518,bas_ste_run1_130518,NN,7,1,straw,4000,1,820,2,2,280179,288978,289798,90964,13,189.215,198.014,198.834,28.408,256.421,484.418,228.026,456.023,684.02
bas,ste,1,130518,bas_ste_run1_130518,NP,6,1,frost,2800,1,1222,1,1,294577,303376,304598,90964,14,203.613,212.412,213.634,28.408,256.421,484.418,228.026,456.023,684.02
bas,ste,1,130518,bas_ste_run1_130518,RN,5,1,quart,1600,0,814,1,2,307775,316573,317387,90964,15,216.811,225.609,226.423,28.408,256.421,484.418,228.026,456.023,684.02
bas,ste,1,130518,bas_ste_run1_130518,NN,6,1,taxi,4000,0,791,1,2,349785,358583,359374,90964,16,258.821,267.619,268.41,28.408,256.421,484.418,228.026,456.023,684.02
bas,ste,1,130518,bas_ste_run1_130518,NN,8,2,liar,2800,0,0,,2,364183,372981,0,90964,17,273.219,282.017,-90.964,28.408,256.421,484.418,228.026,456.023,684.02
bas,ste,1,130518,bas_ste_run1_130518,NP,7,2,need,2800,1,933,1,1,377380,386179,387112,90964,18,286.416,295.215,296.148,28.408,256.421,484.418,228.026,456.023,684.02
bas,ste,1,130518,bas_ste_run1_130518,NP,7,2,bean,2800,1,838,1,1,390578,399377,400215,90964,19,299.614,308.413,309.251,28.408,256.421,484.418,228.026,456.023,684.02
bas,ste,1,130518,bas_ste_run1_130518,NP,8,3,bees,2800,1,1219,1,1,403776,412575,413794,90964,20,312.812,321.611,322.83,28.408,256.421,484.418,228.026,456.023,684.02
bas,ste,1,130518,bas_ste_run1_130518,NP,5,3,visit,1600,0,1315,2,1,416974,425773,427088,90964,21,326.01,334.809,336.124,28.408,256.421,484.418,228.026,456.023,684.02
bas,ste,1,130518,bas_ste_run1_130518,NN,7,1,logic,1600,1,1426,2,2,428972,437771,439197,90964,22,338.008,346.807,348.233,28.408,256.421,484.418,228.026,456.023,684.02
bas,ste,1,130518,bas_ste_run1_130518,NP,5,3,people,4000,1,1025,1,1,440970,449786,450811,90964,23,350.006,358.822,359.847,28.408,256.421,484.418,228.026,456.023,684.02
bas,ste,1,130518,bas_ste_run1_130518,NN,8,2,heater,1600,1,853,2,2,455385,464183,465036,90964,24,364.421,373.219,374.072,28.408,256.421,484.418,228.026,456.023,684.02
bas,ste,1,130518,bas_ste_run1_130518,RN,5,1,noise,4000,1,1043,2,2,467383,476181,477224,90964,25,376.419,385.217,386.26,28.408,256.421,484.418,228.026,456.023,684.02
bas,ste,1,130518,bas_ste_run1_130518,NN,5,2,pole,2800,1,1437,2,2,481780,490579,492016,90964,26,390.816,399.615,401.052,28.408,256.421,484.418,228.026,456.023,684.02
bas,ste,1,130518,bas_ste_run1_130518,NP,8,3,city,4000,1,884,1,1,494978,503777,504661,90964,27,404.014,412.813,413.697,28.408,256.421,484.418,228.026,456.023,684.02
bas,ste,1,130518,bas_ste_run1_130518,NP,8,3,carpet,4000,0,1505,2,1,509376,518175,519680,90964,28,418.412,427.211,428.716,28.408,256.421,484.418,228.026,456.023,684.02
bas,ste,1,130518,bas_ste_run1_130518,NP,5,3,tags,1600,1,902,1,1,523774,532572,533474,90964,29,432.81,441.608,442.51,28.408,256.421,484.418,228.026,456.023,684.02
bas,ste,1,130518,bas_ste_run1_130518,NN,5,2,greed,1600,1,1055,2,2,535772,544570,545625,90964,30,444.808,453.606,454.661,28.408,256.421,484.418,228.026,456.023,684.02
bas,ste,1,130518,bas_ste_run1_130518,NN,5,2,pans,4000,1,868,2,2,577782,586580,587448,90964,31,486.818,495.616,496.484,28.408,256.421,484.418,228.026,456.023,684.02
bas,ste,1,130518,bas_ste_run1_130518,NP,5,3,muscle,4000,1,789,1,1,592179,600978,601767,90964,32,501.215,510.014,510.803,28.408,256.421,484.418,228.026,456.023,684.02
bas,ste,1,130518,bas_ste_run1_130518,NP,8,2,bugs,2800,0,1039,2,1,606577,615376,616415,90964,33,515.613,524.412,525.451,28.408,256.421,484.418,228.026,456.023,684.02
bas,ste,1,130518,bas_ste_run1_130518,RN,5,1,fusion,2800,0,1760,1,2,619775,628574,630334,90964,34,528.811,537.61,539.37,28.408,256.421,484.418,228.026,456.023,684.02
bas,ste,1,130518,bas_ste_run1_130518,NN,8,2,shell,4000,1,1801,2,2,632973,641772,643573,90964,35,542.009,550.808,552.609,28.408,256.421,484.418,228.026,456.023,684.02
bas,ste,1,130518,bas_ste_run1_130518,NP,7,1,clue,2800,0,1764,2,1,647371,656186,657950,90964,36,556.407,565.222,566.986,28.408,256.421,484.418,228.026,456.023,684.02
bas,ste,1,130518,bas_ste_run1_130518,NP,8,2,wife,1600,1,1026,1,1,660585,669384,670410,90964,37,569.621,578.42,579.446,28.408,256.421,484.418,228.026,456.023,684.02
bas,ste,1,130518,bas_ste_run1_130518,NN,5,2,gift,4000,1,889,2,2,672583,681382,682271,90964,38,581.619,590.418,591.307,28.408,256.421,484.418,228.026,456.023,684.02
bas,ste,1,130518,bas_ste_run1_130518,NP,6,1,food,2800,1,1014,1,1,686981,695780,696794,90964,39,596.017,604.816,605.83,28.408,256.421,484.418,228.026,456.023,684.02
bas,ste,1,130518,bas_ste_run1_130518,RN,8,1,ground,1600,0,1021,1,2,700179,708978,709999,90964,40,609.215,618.014,619.035,28.408,256.421,484.418,228.026,456.023,684.02
bas,ste,1,130518,bas_ste_run1_130518,NP,5,3,marker,1600,1,733,1,1,712177,720976,721709,90964,41,621.213,630.012,630.745,28.408,256.421,484.418,228.026,456.023,684.02
bas,ste,1,130518,bas_ste_run1_130518,NN,8,2,signal,2800,1,1085,2,2,724175,732974,734059,90964,42,633.211,642.01,643.095,28.408,256.421,484.418,228.026,456.023,684.02
bas,ste,1,130518,bas_ste_run1_130518,NP,5,3,curve,1600,1,987,1,1,737373,746172,747159,90964,43,646.409,655.208,656.195,28.408,256.421,484.418,228.026,456.023,684.02
bas,ste,1,130518,bas_ste_run1_130518,NN,7,2,pledge,4000,1,1096,2,2,749371,758186,759282,90964,44,658.407,667.222,668.318,28.408,256.421,484.418,228.026,456.023,684.02
bas,ste,1,130518,bas_ste_run1_130518,NN,7,2,berry,1600,1,903,2,2,763785,772584,773487,90964,45,672.821,681.62,682.523,28.408,256.421,484.418,228.026,456.023,684.02
bas,ste,2,130518,bas_ste_run2_130518,NP,5,3,north,4000,1,814,1,1,62341,71139,71953,31529,1,30.812,39.61,40.424,28.412,256.409,484.423,228.03,456.027,684.024
bas,ste,2,130518,bas_ste_run2_130518,NP,5,3,ransom,4000,1,753,1,1,76738,85537,86290,31529,2,45.209,54.008,54.761,28.412,256.409,484.423,228.03,456.027,684.024
bas,ste,2,130518,bas_ste_run2_130518,NN,5,2,chin,4000,1,1112,2,2,91136,99951,101063,31529,3,59.607,68.422,69.534,28.412,256.409,484.423,228.03,456.027,684.024
bas,ste,2,130518,bas_ste_run2_130518,NN,6,1,whale,2800,1,762,2,2,105551,114349,115111,31529,4,74.022,82.82,83.582,28.412,256.409,484.423,228.03,456.027,684.024
bas,ste,2,130518,bas_ste_run2_130518,NN,8,2,cotton,4000,1,1386,2,2,118748,127547,128933,31529,5,87.219,96.018,97.404,28.412,256.409,484.423,228.03,456.027,684.024
bas,ste,2,130518,bas_ste_run2_130518,NP,5,3,wheel,4000,1,1242,1,1,133146,141945,143187,31529,6,101.617,110.416,111.658,28.412,256.409,484.423,228.03,456.027,684.024
bas,ste,2,130518,bas_ste_run2_130518,RN,5,1,cabin,1600,0,892,1,2,147544,156342,157234,31529,7,116.015,124.813,125.705,28.412,256.409,484.423,228.03,456.027,684.024
bas,ste,2,130518,bas_ste_run2_130518,NN,5,2,hatch,1600,0,1623,1,2,159542,168341,169964,31529,8,128.013,136.812,138.435,28.412,256.409,484.423,228.03,456.027,684.024
bas,ste,2,130518,bas_ste_run2_130518,NN,7,1,flame,2800,1,1614,2,2,171540,180339,181953,31529,9,140.011,148.81,150.424,28.412,256.409,484.423,228.03,456.027,684.024
bas,ste,2,130518,bas_ste_run2_130518,NP,6,1,dollar,1600,1,806,1,1,184738,193537,194343,31529,10,153.209,162.008,162.814,28.412,256.409,484.423,228.03,456.027,684.024
bas,ste,2,130518,bas_ste_run2_130518,NP,8,2,exam,1600,1,1019,1,1,196736,205551,206570,31529,11,165.207,174.022,175.041,28.412,256.409,484.423,228.03,456.027,684.024
bas,ste,2,130518,bas_ste_run2_130518,NN,8,2,lesson,2800,1,705,2,2,208751,217549,218254,31529,12,177.222,186.02,186.725,28.412,256.409,484.423,228.03,456.027,684.024
bas,ste,2,130518,bas_ste_run2_130518,NP,7,1,teeth,1600,1,1028,1,1,221949,230747,231775,31529,13,190.42,199.218,200.246,28.412,256.409,484.423,228.03,456.027,684.024
bas,ste,2,130518,bas_ste_run2_130518,NP,8,2,kids,2800,1,949,1,1,233947,242745,243694,31529,14,202.418,211.216,212.165,28.412,256.409,484.423,228.03,456.027,684.024
bas,ste,2,130518,bas_ste_run2_130518,RN,7,1,jars,2800,0,1044,1,2,247145,255943,256987,31529,15,215.616,224.414,225.458,28.412,256.409,484.423,228.03,456.027,684.024
bas,ste,2,130518,bas_ste_run2_130518,NP,5,3,harp,2800,1,1401,1,1,290338,299136,300537,31529,16,258.809,267.607,269.008,28.412,256.409,484.423,228.03,456.027,684.024
bas,ste,2,130518,bas_ste_run2_130518,NN,8,2,sled,4000,1,1556,2,2,303536,312351,313907,31529,17,272.007,280.822,282.378,28.412,256.409,484.423,228.03,456.027,684.024
bas,ste,2,130518,bas_ste_run2_130518,RN,8,1,house,2800,1,1351,2,2,317950,326749,328100,31529,18,286.421,295.22,296.571,28.412,256.409,484.423,228.03,456.027,684.024
bas,ste,2,130518,bas_ste_run2_130518,NP,5,3,store,2800,1,1342,1,1,331148,339946,341288,31529,19,299.619,308.417,309.759,28.412,256.409,484.423,228.03,456.027,684.024
bas,ste,2,130518,bas_ste_run2_130518,RN,5,1,soil,1600,0,1328,1,2,344346,353144,354472,31529,20,312.817,321.615,322.943,28.412,256.409,484.423,228.03,456.027,684.024
bas,ste,2,130518,bas_ste_run2_130518,NN,6,1,zebra,4000,1,841,2,2,356344,365142,365983,31529,21,324.815,333.613,334.454,28.412,256.409,484.423,228.03,456.027,684.024
bas,ste,2,130518,bas_ste_run2_130518,NP,8,2,action,1600,1,813,1,1,370742,379540,380353,31529,22,339.213,348.011,348.824,28.412,256.409,484.423,228.03,456.027,684.024
bas,ste,2,130518,bas_ste_run2_130518,NN,7,1,poison,4000,1,917,2,2,382740,391538,392455,31529,23,351.211,360.009,360.926,28.412,256.409,484.423,228.03,456.027,684.024
bas,ste,2,130518,bas_ste_run2_130518,NN,5,2,heaven,2800,1,1804,2,2,397137,405936,407740,31529,24,365.608,374.407,376.211,28.412,256.409,484.423,228.03,456.027,684.024
bas,ste,2,130518,bas_ste_run2_130518,NP,8,2,text,4000,1,1187,1,1,410352,419151,420338,31529,25,378.823,387.622,388.809,28.412,256.409,484.423,228.03,456.027,684.024
bas,ste,2,130518,bas_ste_run2_130518,NP,5,3,others,1600,1,595,1,1,424750,433548,434143,31529,26,393.221,402.019,402.614,28.412,256.409,484.423,228.03,456.027,684.024
bas,ste,2,130518,bas_ste_run2_130518,NP,7,2,crime,1600,1,1429,1,1,436748,445546,446975,31529,27,405.219,414.017,415.446,28.412,256.409,484.423,228.03,456.027,684.024
bas,ste,2,130518,bas_ste_run2_130518,NN,5,2,barber,4000,1,1056,2,2,448746,457544,458600,31529,28,417.217,426.015,427.071,28.412,256.409,484.423,228.03,456.027,684.024
bas,ste,2,130518,bas_ste_run2_130518,NN,8,2,steel,2800,1,1180,2,2,463143,471942,473122,31529,29,431.614,440.413,441.593,28.412,256.409,484.423,228.03,456.027,684.024
bas,ste,2,130518,bas_ste_run2_130518,NP,7,2,cherry,1600,1,808,1,1,476341,485140,485948,31529,30,444.812,453.611,454.419,28.412,256.409,484.423,228.03,456.027,684.024
bas,ste,2,130518,bas_ste_run2_130518,NN,7,2,book,2800,1,1145,2,2,518351,527150,528295,31529,31,486.822,495.621,496.766,28.412,256.409,484.423,228.03,456.027,684.024
bas,ste,2,130518,bas_ste_run2_130518,NP,7,1,photo,4000,1,775,1,1,531549,540348,541123,31529,32,500.02,508.819,509.594,28.412,256.409,484.423,228.03,456.027,684.024
bas,ste,2,130518,bas_ste_run2_130518,NP,6,1,profit,2800,1,903,1,1,545947,554746,555649,31529,33,514.418,523.217,524.12,28.412,256.409,484.423,228.03,456.027,684.024
bas,ste,2,130518,bas_ste_run2_130518,NN,7,2,word,2800,1,1081,2,2,559145,567943,569024,31529,34,527.616,536.414,537.495,28.412,256.409,484.423,228.03,456.027,684.024
bas,ste,2,130518,bas_ste_run2_130518,NP,8,3,paper,1600,1,844,1,1,572343,581141,581985,31529,35,540.814,549.612,550.456,28.412,256.409,484.423,228.03,456.027,684.024
bas,ste,2,130518,bas_ste_run2_130518,NP,8,3,pony,1600,1,773,1,1,584341,593139,593912,31529,36,552.812,561.61,562.383,28.412,256.409,484.423,228.03,456.027,684.024
bas,ste,2,130518,bas_ste_run2_130518,NP,5,3,fluid,1600,0,1128,2,1,596339,605137,606265,31529,37,564.81,573.608,574.736,28.412,256.409,484.423,228.03,456.027,684.024
bas,ste,2,130518,bas_ste_run2_130518,NN,8,1,church,1600,1,1316,2,2,608337,617152,618468,31529,38,576.808,585.623,586.939,28.412,256.409,484.423,228.03,456.027,684.024
bas,ste,2,130518,bas_ste_run2_130518,NN,5,2,story,2800,0,0,,2,620352,629150,0,31529,39,588.823,597.621,-31.529,28.412,256.409,484.423,228.03,456.027,684.024
bas,ste,2,130518,bas_ste_run2_130518,NP,5,3,yard,4000,1,637,1,1,633550,642348,642985,31529,40,602.021,610.819,611.456,28.412,256.409,484.423,228.03,456.027,684.024
bas,ste,2,130518,bas_ste_run2_130518,RN,5,1,owner,4000,1,1102,2,2,647947,656746,657848,31529,41,616.418,625.217,626.319,28.412,256.409,484.423,228.03,456.027,684.024
bas,ste,2,130518,bas_ste_run2_130518,NP,5,3,honey,4000,1,732,1,1,662345,671144,671876,31529,42,630.816,639.615,640.347,28.412,256.409,484.423,228.03,456.027,684.024
bas,ste,2,130518,bas_ste_run2_130518,NN,6,1,cows,1600,1,1212,2,2,676743,685541,686753,31529,43,645.214,654.012,655.224,28.412,256.409,484.423,228.03,456.027,684.024
bas,ste,2,130518,bas_ste_run2_130518,NP,8,3,pilot,2800,1,1006,1,1,688741,697539,698545,31529,44,657.212,666.01,667.016,28.412,256.409,484.423,228.03,456.027,684.024
bas,ste,2,130518,bas_ste_run2_130518,NN,5,2,train,4000,1,1184,2,2,701939,710737,711921,31529,45,670.41,679.208,680.392,28.412,256.409,484.423,228.03,456.027,684.024
pro,ste,1,130518,pro_ste_run1_130518,NN,2,2,vision,4000,1,1361,2,2,137353,146152,147513,106536,1,30.817,39.616,40.977,28.417,256.431,484.428,228.036,456.033,684.03
pro,ste,1,130518,pro_ste_run1_130518,NP,5,3,park,2800,1,637,1,1,151751,160566,161203,106536,2,45.215,54.03,54.667,28.417,256.431,484.428,228.036,456.033,684.03
pro,ste,1,130518,pro_ste_run1_130518,NN,4,1,idea,2800,1,662,2,2,164965,173764,174426,106536,3,58.429,67.228,67.89,28.417,256.431,484.428,228.036,456.033,684.03
pro,ste,1,130518,pro_ste_run1_130518,NP,5,3,boiler,2800,1,728,1,1,178163,186962,187690,106536,4,71.627,80.426,81.154,28.417,256.431,484.428,228.036,456.033,684.03
pro,ste,1,130518,pro_ste_run1_130518,NP,3,2,ranch,4000,1,1364,1,1,191361,200160,201524,106536,5,84.825,93.624,94.988,28.417,256.431,484.428,228.036,456.033,684.03
pro,ste,1,130518,pro_ste_run1_130518,NN,5,2,deed,1600,1,800,2,2,205759,214557,215357,106536,6,99.223,108.021,108.821,28.417,256.431,484.428,228.036,456.033,684.03
pro,ste,1,130518,pro_ste_run1_130518,NN,2,2,access,1600,1,929,2,2,217757,226556,227485,106536,7,111.221,120.02,120.949,28.417,256.431,484.428,228.036,456.033,684.03
pro,ste,1,130518,pro_ste_run1_130518,NP,4,1,ways,4000,1,860,1,1,229755,238554,239414,106536,8,123.219,132.018,132.878,28.417,256.431,484.428,228.036,456.033,684.03
pro,ste,1,130518,pro_ste_run1_130518,RN,5,1,keeper,1600,0,856,1,2,244153,252951,253807,106536,9,137.617,146.415,147.271,28.417,256.431,484.428,228.036,456.033,684.03
pro,ste,1,130518,pro_ste_run1_130518,NN,5,2,item,2800,1,1080,2,2,256151,264966,266046,106536,10,149.615,158.43,159.51,28.417,256.431,484.428,228.036,456.033,684.03
pro,ste,1,130518,pro_ste_run1_130518,NN,3,1,hope,1600,0,935,1,2,269365,278164,279099,106536,11,162.829,171.628,172.563,28.417,256.431,484.428,228.036,456.033,684.03
pro,ste,1,130518,pro_ste_run1_130518,NP,5,3,parent,4000,1,1082,1,1,281363,290162,291244,106536,12,174.827,183.626,184.708,28.417,256.431,484.428,228.036,456.033,684.03
pro,ste,1,130518,pro_ste_run1_130518,NP,2,2,dryer,2800,0,936,2,1,295761,304560,305496,106536,13,189.225,198.024,198.96,28.417,256.431,484.428,228.036,456.033,684.03
pro,ste,1,130518,pro_ste_run1_130518,NP,2,2,suit,4000,1,962,1,1,308959,317758,318720,106536,14,202.423,211.222,212.184,28.417,256.431,484.428,228.036,456.033,684.03
pro,ste,1,130518,pro_ste_run1_130518,NP,3,2,nail,1600,1,1039,1,1,323357,332155,333194,106536,15,216.821,225.619,226.658,28.417,256.431,484.428,228.036,456.033,684.03
pro,ste,1,130518,pro_ste_run1_130518,NP,5,3,menu,4000,0,1085,2,1,365350,374165,375250,106536,16,258.814,267.629,268.714,28.417,256.431,484.428,228.036,456.033,684.03
pro,ste,1,130518,pro_ste_run1_130518,NN,5,2,rage,2800,0,0,,2,379764,388563,0,106536,17,273.228,282.027,-106.536,28.417,256.431,484.428,228.036,456.033,684.03
pro,ste,1,130518,pro_ste_run1_130518,NN,2,2,laser,2800,1,786,2,2,392962,401761,402547,106536,18,286.426,295.225,296.011,28.417,256.431,484.428,228.036,456.033,684.03
pro,ste,1,130518,pro_ste_run1_130518,NP,2,3,wool,1600,1,1041,1,1,406160,414959,416000,106536,19,299.624,308.423,309.464,28.417,256.431,484.428,228.036,456.033,684.03
pro,ste,1,130518,pro_ste_run1_130518,NP,5,3,color,1600,1,1021,1,1,418158,426957,427978,106536,20,311.622,320.421,321.442,28.417,256.431,484.428,228.036,456.033,684.03
pro,ste,1,130518,pro_ste_run1_130518,NP,3,2,saint,2800,1,844,1,1,430156,438955,439799,106536,21,323.62,332.419,333.263,28.417,256.431,484.428,228.036,456.033,684.03
pro,ste,1,130518,pro_ste_run1_130518,NN,4,1,critic,4000,1,1274,2,2,443354,452153,453427,106536,22,336.818,345.617,346.891,28.417,256.431,484.428,228.036,456.033,684.03
pro,ste,1,130518,pro_ste_run1_130518,NN,5,2,roses,1600,1,1555,2,2,457752,466551,468106,106536,23,351.216,360.015,361.57,28.417,256.431,484.428,228.036,456.033,684.03
pro,ste,1,130518,pro_ste_run1_130518,NN,3,1,rumor,2800,0,0,,2,469750,478565,0,106536,24,363.214,372.029,-106.536,28.417,256.431,484.428,228.036,456.033,684.03
pro,ste,1,130518,pro_ste_run1_130518,NP,3,2,heel,4000,1,1089,1,1,482965,491763,492852,106536,25,376.429,385.227,386.316,28.417,256.431,484.428,228.036,456.033,684.03
pro,ste,1,130518,pro_ste_run1_130518,RN,5,1,shell,2800,1,1111,2,2,497362,506161,507272,106536,26,390.826,399.625,400.736,28.417,256.431,484.428,228.036,456.033,684.03
pro,ste,1,130518,pro_ste_run1_130518,NP,5,3,review,4000,1,627,1,1,510560,519359,519986,106536,27,404.024,412.823,413.45,28.417,256.431,484.428,228.036,456.033,684.03
pro,ste,1,130518,pro_ste_run1_130518,NN,2,2,rash,4000,0,0,,2,524958,533757,0,106536,28,418.422,427.221,-106.536,28.417,256.431,484.428,228.036,456.033,684.03
pro,ste,1,130518,pro_ste_run1_130518,NP,2,3,chip,1600,1,1217,1,1,539356,548154,549371,106536,29,432.82,441.618,442.835,28.417,256.431,484.428,228.036,456.033,684.03
pro,ste,1,130518,pro_ste_run1_130518,NP,2,3,parade,1600,1,1109,1,1,551354,560152,561261,106536,30,444.818,453.616,454.725,28.417,256.431,484.428,228.036,456.033,684.03
pro,ste,1,130518,pro_ste_run1_130518,NP,4,1,verse,4000,1,1087,1,1,593364,602162,603249,106536,31,486.828,495.626,496.713,28.417,256.431,484.428,228.036,456.033,684.03
pro,ste,1,130518,pro_ste_run1_130518,NN,3,2,torch,1600,0,897,1,2,607761,616560,617457,106536,32,501.225,510.024,510.921,28.417,256.431,484.428,228.036,456.033,684.03
pro,ste,1,130518,pro_ste_run1_130518,NN,5,2,deal,2800,1,1149,2,2,619759,628558,629707,106536,33,513.223,522.022,523.171,28.417,256.431,484.428,228.036,456.033,684.03
pro,ste,1,130518,pro_ste_run1_130518,NP,5,3,clay,2800,0,996,2,1,632957,641756,642752,106536,34,526.421,535.22,536.216,28.417,256.431,484.428,228.036,456.033,684.03
pro,ste,1,130518,pro_ste_run1_130518,NP,5,3,forest,4000,1,774,1,1,646155,654954,655728,106536,35,539.619,548.418,549.192,28.417,256.431,484.428,228.036,456.033,684.03
pro,ste,1,130518,pro_ste_run1_130518,NP,3,1,charge,4000,1,1069,1,1,660553,669352,670421,106536,36,554.017,562.816,563.885,28.417,256.431,484.428,228.036,456.033,684.03
pro,ste,1,130518,pro_ste_run1_130518,NN,2,2,moose,1600,0,0,,2,674951,683766,0,106536,37,568.415,577.23,-106.536,28.417,256.431,484.428,228.036,456.033,684.03
pro,ste,1,130518,pro_ste_run1_130518,RN,5,1,chest,4000,1,1020,2,2,686965,695764,696784,106536,38,580.429,589.228,590.248,28.417,256.431,484.428,228.036,456.033,684.03
pro,ste,1,130518,pro_ste_run1_130518,NP,2,2,paste,2800,1,761,1,1,701363,710162,710923,106536,39,594.827,603.626,604.387,28.417,256.431,484.428,228.036,456.033,684.03
pro,ste,1,130518,pro_ste_run1_130518,NN,3,2,donor,1600,1,1069,2,2,714561,723360,724429,106536,40,608.025,616.824,617.893,28.417,256.431,484.428,228.036,456.033,684.03
pro,ste,1,130518,pro_ste_run1_130518,NP,5,3,advice,1600,0,947,2,1,726559,735358,736305,106536,41,620.023,628.822,629.769,28.417,256.431,484.428,228.036,456.033,684.03
pro,ste,1,130518,pro_ste_run1_130518,NN,2,2,work,2800,1,1050,2,2,738557,747356,748406,106536,42,632.021,640.82,641.87,28.417,256.431,484.428,228.036,456.033,684.03
pro,ste,1,130518,pro_ste_run1_130518,RN,2,1,bags,1600,0,0,,2,751755,760554,0,106536,43,645.219,654.018,-106.536,28.417,256.431,484.428,228.036,456.033,684.03
pro,ste,1,130518,pro_ste_run1_130518,NN,5,2,group,2800,1,905,2,2,763753,772552,773457,106536,44,657.217,666.016,666.921,28.417,256.431,484.428,228.036,456.033,684.03
pro,ste,1,130518,pro_ste_run1_130518,NP,2,2,guys,4000,1,667,1,1,776951,785766,786433,106536,45,670.415,679.23,679.897,28.417,256.431,484.428,228.036,456.033,684.03
pro,ste,2,130518,pro_ste_run2_130518,NN,4,1,campus,2800,1,866,2,2,914454,923253,924119,883632,1,30.822,39.621,40.487,28.422,256.419,484.416,228.024,456.021,684.018
pro,ste,2,130518,pro_ste_run2_130518,NP,5,3,snap,4000,1,897,1,1,927652,936451,937348,883632,2,44.02,52.819,53.716,28.422,256.419,484.416,228.024,456.021,684.018
pro,ste,2,130518,pro_ste_run2_130518,NP,4,1,belief,1600,1,718,1,1,942050,950848,951566,883632,3,58.418,67.216,67.934,28.422,256.419,484.416,228.024,456.021,684.018
pro,ste,2,130518,pro_ste_run2_130518,NP,3,1,drip,2800,1,722,1,1,954048,962846,963568,883632,4,70.416,79.214,79.936,28.422,256.419,484.416,228.024,456.021,684.018
pro,ste,2,130518,pro_ste_run2_130518,NP,2,2,bottle,4000,1,1199,1,1,967246,976044,977243,883632,5,83.614,92.412,93.611,28.422,256.419,484.416,228.024,456.021,684.018
pro,ste,2,130518,pro_ste_run2_130518,RN,5,1,level,1600,0,1010,1,2,981643,990442,991452,883632,6,98.011,106.81,107.82,28.422,256.419,484.416,228.024,456.021,684.018
pro,ste,2,130518,pro_ste_run2_130518,NN,2,2,spice,1600,1,790,2,2,993641,1002440,1003230,883632,7,110.009,118.808,119.598,28.422,256.419,484.416,228.024,456.021,684.018
pro,ste,2,130518,pro_ste_run2_130518,NN,2,2,coal,4000,1,856,2,2,1005639,1014455,1015311,883632,8,122.007,130.823,131.679,28.422,256.419,484.416,228.024,456.021,684.018
pro,ste,2,130518,pro_ste_run2_130518,NN,3,1,film,2800,1,996,2,2,1020054,1028852,1029848,883632,9,136.422,145.22,146.216,28.422,256.419,484.416,228.024,456.021,684.018
pro,ste,2,130518,pro_ste_run2_130518,RN,3,1,singer,4000,0,941,1,2,1033252,1042050,1042991,883632,10,149.62,158.418,159.359,28.422,256.419,484.416,228.024,456.021,684.018
pro,ste,2,130518,pro_ste_run2_130518,NN,5,2,herd,1600,1,1462,2,2,1047649,1056448,1057910,883632,11,164.017,172.816,174.278,28.422,256.419,484.416,228.024,456.021,684.018
pro,ste,2,130518,pro_ste_run2_130518,NP,5,3,flight,2800,0,1107,2,1,1059647,1068446,1069553,883632,12,176.015,184.814,185.921,28.422,256.419,484.416,228.024,456.021,684.018
pro,ste,2,130518,pro_ste_run2_130518,NP,2,2,quote,2800,1,871,1,1,1072845,1081644,1082515,883632,13,189.213,198.012,198.883,28.422,256.419,484.416,228.024,456.021,684.018
pro,ste,2,130518,pro_ste_run2_130518,NN,5,2,fury,4000,1,936,2,2,1086043,1094842,1095778,883632,14,202.411,211.21,212.146,28.422,256.419,484.416,228.024,456.021,684.018
pro,ste,2,130518,pro_ste_run2_130518,NP,5,3,stroke,1600,1,775,1,1,1100441,1109240,1110015,883632,15,216.809,225.608,226.383,28.422,256.419,484.416,228.024,456.021,684.018
pro,ste,2,130518,pro_ste_run2_130518,NP,3,2,gold,4000,1,944,1,1,1142451,1151250,1152194,883632,16,258.819,267.618,268.562,28.422,256.419,484.416,228.024,456.021,684.018
pro,ste,2,130518,pro_ste_run2_130518,NP,3,2,sailor,1600,1,1465,1,1,1156849,1165647,1167112,883632,17,273.217,282.015,283.48,28.422,256.419,484.416,228.024,456.021,684.018
pro,ste,2,130518,pro_ste_run2_130518,NP,5,3,thing,2800,1,867,1,1,1168847,1177645,1178512,883632,18,285.215,294.013,294.88,28.422,256.419,484.416,228.024,456.021,684.018
pro,ste,2,130518,pro_ste_run2_130518,NN,5,2,kids,1600,1,1043,2,2,1182045,1190843,1191886,883632,19,298.413,307.211,308.254,28.422,256.419,484.416,228.024,456.021,684.018
pro,ste,2,130518,pro_ste_run2_130518,RN,2,1,onion,4000,1,1024,2,2,1194043,1202841,1203865,883632,20,310.411,319.209,320.233,28.422,256.419,484.416,228.024,456.021,684.018
pro,ste,2,130518,pro_ste_run2_130518,NP,5,3,grill,4000,0,1226,2,1,1208440,1217239,1218465,883632,21,324.808,333.607,334.833,28.422,256.419,484.416,228.024,456.021,684.018
pro,ste,2,130518,pro_ste_run2_130518,NN,4,1,barber,1600,0,1723,1,2,1222855,1231653,1233376,883632,22,339.223,348.021,349.744,28.422,256.419,484.416,228.024,456.021,684.018
pro,ste,2,130518,pro_ste_run2_130518,NN,2,2,flaw,2800,1,1163,2,2,1234853,1243651,1244814,883632,23,351.221,360.019,361.182,28.422,256.419,484.416,228.024,456.021,684.018
pro,ste,2,130518,pro_ste_run2_130518,NN,3,1,grain,2800,1,802,2,2,1248051,1256849,1257651,883632,24,364.419,373.217,374.019,28.422,256.419,484.416,228.024,456.021,684.018
pro,ste,2,130518,pro_ste_run2_130518,NP,2,2,nerve,2800,0,1680,2,1,1261249,1270047,1271727,883632,25,377.617,386.415,388.095,28.422,256.419,484.416,228.024,456.021,684.018
pro,ste,2,130518,pro_ste_run2_130518,NP,5,3,class,2800,0,764,2,1,1274447,1283245,1284009,883632,26,390.815,399.613,400.377,28.422,256.419,484.416,228.024,456.021,684.018
pro,ste,2,130518,pro_ste_run2_130518,NN,2,2,tally,4000,0,835,1,2,1287644,1296443,1297278,883632,27,404.012,412.811,413.646,28.422,256.419,484.416,228.024,456.021,684.018
pro,ste,2,130518,pro_ste_run2_130518,NP,2,2,photo,4000,0,0,,1,1302042,1310841,0,883632,28,418.41,427.209,-883.632,28.422,256.419,484.416,228.024,456.021,684.018
pro,ste,2,130518,pro_ste_run2_130518,NN,5,2,zebra,1600,1,1018,2,2,1316440,1325255,1326273,883632,29,432.808,441.623,442.641,28.422,256.419,484.416,228.024,456.021,684.018
pro,ste,2,130518,pro_ste_run2_130518,RN,5,1,pupil,1600,1,1034,2,2,1328455,1337253,1338287,883632,30,444.823,453.621,454.655,28.422,256.419,484.416,228.024,456.021,684.018
pro,ste,2,130518,pro_ste_run2_130518,NN,2,1,list,4000,0,1023,1,2,1370448,1379247,1380270,883632,31,486.816,495.615,496.638,28.422,256.419,484.416,228.024,456.021,684.018
pro,ste,2,130518,pro_ste_run2_130518,NP,3,1,tissue,1600,1,1834,1,1,1384846,1393644,1395478,883632,32,501.214,510.012,511.846,28.422,256.419,484.416,228.024,456.021,684.018
pro,ste,2,130518,pro_ste_run2_130518,NP,2,3,point,4000,0,0,,1,1396844,1405642,0,883632,33,513.212,522.01,-883.632,28.422,256.419,484.416,228.024,456.021,684.018
pro,ste,2,130518,pro_ste_run2_130518,NN,5,2,output,1600,0,0,,2,1411241,1420040,0,883632,34,527.609,536.408,-883.632,28.422,256.419,484.416,228.024,456.021,684.018
pro,ste,2,130518,pro_ste_run2_130518,NP,5,3,finger,1600,1,889,1,1,1423239,1432055,1432944,883632,35,539.607,548.423,549.312,28.422,256.419,484.416,228.024,456.021,684.018
pro,ste,2,130518,pro_ste_run2_130518,NP,2,3,grace,1600,0,888,2,1,1435254,1444053,1444941,883632,36,551.622,560.421,561.309,28.422,256.419,484.416,228.024,456.021,684.018
pro,ste,2,130518,pro_ste_run2_130518,NN,3,2,filter,4000,0,0,,2,1447252,1456051,0,883632,37,563.62,572.419,-883.632,28.422,256.419,484.416,228.024,456.021,684.018
pro,ste,2,130518,pro_ste_run2_130518,NP,5,3,click,4000,1,1347,1,1,1461650,1470449,1471796,883632,38,578.018,586.817,588.164,28.422,256.419,484.416,228.024,456.021,684.018
pro,ste,2,130518,pro_ste_run2_130518,NN,3,2,cows,1600,0,1206,1,2,1476048,1484846,1486052,883632,39,592.416,601.214,602.42,28.422,256.419,484.416,228.024,456.021,684.018
pro,ste,2,130518,pro_ste_run2_130518,RN,5,1,need,2800,1,950,2,2,1488046,1496844,1497794,883632,40,604.414,613.212,614.162,28.422,256.419,484.416,228.024,456.021,684.018
pro,ste,2,130518,pro_ste_run2_130518,NP,5,3,void,2800,0,0,,1,1501244,1510042,0,883632,41,617.612,626.41,-883.632,28.422,256.419,484.416,228.024,456.021,684.018
pro,ste,2,130518,pro_ste_run2_130518,NP,2,3,talent,2800,0,1861,2,1,1514442,1523240,1525101,883632,42,630.81,639.608,641.469,28.422,256.419,484.416,228.024,456.021,684.018
pro,ste,2,130518,pro_ste_run2_130518,NP,4,1,clown,4000,1,1339,1,1,1527639,1536455,1537794,883632,43,644.007,652.823,654.162,28.422,256.419,484.416,228.024,456.021,684.018
pro,ste,2,130518,pro_ste_run2_130518,NN,5,2,signal,2800,0,930,1,2,1542054,1550852,1551782,883632,44,658.422,667.22,668.15,28.422,256.419,484.416,228.024,456.021,684.018
pro,ste,2,130518,pro_ste_run2_130518,NN,4,1,grip,2800,1,1390,2,2,1555252,1564050,1565440,883632,45,671.62,680.418,681.808,28.422,256.419,484.416,228.024,456.021,684.018
rea,ste,1,130518,rea_ste_run1_130518,NP,8,2,brow,2800,1,896,1,1,145396,154211,155107,114592,1,30.804,39.619,40.515,28.421,256.418,484.415,228.022,456.019,684.016
rea,ste,1,130518,rea_ste_run1_130518,RN,5,2,jets,4000,1,824,2,2,158610,167409,168233,114592,2,44.018,52.817,53.641,28.421,256.418,484.415,228.022,456.019,684.016
rea,ste,1,130518,rea_ste_run1_130518,NP,5,3,touch,2800,1,743,1,1,173009,181806,182549,114592,3,58.417,67.214,67.957,28.421,256.418,484.415,228.022,456.019,684.016
rea,ste,1,130518,rea_ste_run1_130518,NP,5,3,pound,2800,1,809,1,1,186206,195004,195813,114592,4,71.614,80.412,81.221,28.421,256.418,484.415,228.022,456.019,684.016
rea,ste,1,130518,rea_ste_run1_130518,RN,7,1,rivals,1600,0,750,1,2,199404,208202,208952,114592,5,84.812,93.61,94.36,28.421,256.418,484.415,228.022,456.019,684.016
rea,ste,1,130518,rea_ste_run1_130518,NP,6,1,name,1600,1,1488,1,1,211402,220200,221688,114592,6,96.81,105.608,107.096,28.421,256.418,484.415,228.022,456.019,684.016
rea,ste,1,130518,rea_ste_run1_130518,NP,7,2,world,4000,1,1482,1,1,223400,232198,233680,114592,7,108.808,117.606,119.088,28.421,256.418,484.415,228.022,456.019,684.016
rea,ste,1,130518,rea_ste_run1_130518,RN,8,2,marker,4000,1,1192,2,2,237797,246596,247788,114592,8,123.205,132.004,133.196,28.421,256.418,484.415,228.022,456.019,684.016
rea,ste,1,130518,rea_ste_run1_130518,NP,5,3,wife,1600,1,707,1,1,252212,261010,261717,114592,9,137.62,146.418,147.125,28.421,256.418,484.415,228.022,456.019,684.016
rea,ste,1,130518,rea_ste_run1_130518,RN,5,2,paper,1600,0,931,1,2,264210,273009,273940,114592,10,149.618,158.417,159.348,28.421,256.418,484.415,228.022,456.019,684.016
rea,ste,1,130518,rea_ste_run1_130518,NN,5,1,chin,2800,1,870,2,2,276208,285007,285877,114592,11,161.616,170.415,171.285,28.421,256.418,484.415,228.022,456.019,684.016
rea,ste,1,130518,rea_ste_run1_130518,NP,7,2,grill,4000,1,1054,1,1,289406,298204,299258,114592,12,174.814,183.612,184.666,28.421,256.418,484.415,228.022,456.019,684.016
rea,ste,1,130518,rea_ste_run1_130518,RN,8,2,rhyme,2800,1,747,2,2,303804,312602,313349,114592,13,189.212,198.01,198.757,28.421,256.418,484.415,228.022,456.019,684.016
rea,ste,1,130518,rea_ste_run1_130518,NP,8,2,goods,1600,0,1416,2,1,317001,325800,327216,114592,14,202.409,211.208,212.624,28.421,256.418,484.415,228.022,456.019,684.016
rea,ste,1,130518,rea_ste_run1_130518,RN,6,1,reign,4000,1,790,2,2,329000,337798,338588,114592,15,214.408,223.206,223.996,28.421,256.418,484.415,228.022,456.019,684.016
rea,ste,1,130518,rea_ste_run1_130518,NP,5,3,harbor,4000,0,1378,2,1,373409,382208,383586,114592,16,258.817,267.616,268.994,28.421,256.418,484.415,228.022,456.019,684.016
rea,ste,1,130518,rea_ste_run1_130518,RN,7,1,boat,2800,1,874,2,2,387807,396605,397479,114592,17,273.215,282.013,282.887,28.421,256.418,484.415,228.022,456.019,684.016
rea,ste,1,130518,rea_ste_run1_130518,RN,8,2,hour,4000,1,934,2,2,401006,409803,410737,114592,18,286.414,295.211,296.145,28.421,256.418,484.415,228.022,456.019,684.016
rea,ste,1,130518,rea_ste_run1_130518,NP,8,3,tongue,4000,1,569,1,1,415402,424201,424770,114592,19,300.81,309.609,310.178,28.421,256.418,484.415,228.022,456.019,684.016
rea,ste,1,130518,rea_ste_run1_130518,RN,6,1,beam,4000,1,760,2,2,429800,438599,439359,114592,20,315.208,324.007,324.767,28.421,256.418,484.415,228.022,456.019,684.016
rea,ste,1,130518,rea_ste_run1_130518,NN,5,1,ruler,1600,1,909,2,2,444198,452996,453905,114592,21,329.606,338.404,339.313,28.421,256.418,484.415,228.022,456.019,684.016
rea,ste,1,130518,rea_ste_run1_130518,NP,5,3,dryer,1600,1,879,1,1,456196,465011,465890,114592,22,341.604,350.419,351.298,28.421,256.418,484.415,228.022,456.019,684.016
rea,ste,1,130518,rea_ste_run1_130518,RN,8,2,jazz,4000,1,709,2,2,468211,477009,477718,114592,23,353.619,362.417,363.126,28.421,256.418,484.415,228.022,456.019,684.016
rea,ste,1,130518,rea_ste_run1_130518,RN,5,2,blaze,1600,1,1036,2,2,482608,491407,492443,114592,24,368.016,376.815,377.851,28.421,256.418,484.415,228.022,456.019,684.016
rea,ste,1,130518,rea_ste_run1_130518,NP,8,3,visit,1600,0,1105,2,1,494606,503405,504510,114592,25,380.014,388.813,389.918,28.421,256.418,484.415,228.022,456.019,684.016
rea,ste,1,130518,rea_ste_run1_130518,RN,5,2,ideals,2800,1,1020,2,2,506605,515403,516423,114592,26,392.013,400.811,401.831,28.421,256.418,484.415,228.022,456.019,684.016
rea,ste,1,130518,rea_ste_run1_130518,NP,5,3,plate,2800,0,0,,1,519802,528601,0,114592,27,405.21,414.009,-114.592,28.421,256.418,484.415,228.022,456.019,684.016
rea,ste,1,130518,rea_ste_run1_130518,NP,7,2,spark,2800,1,931,1,1,533000,541799,542730,114592,28,418.408,427.207,428.138,28.421,256.418,484.415,228.022,456.019,684.016
rea,ste,1,130518,rea_ste_run1_130518,NP,8,3,males,1600,1,1226,1,1,546198,554997,556223,114592,29,431.606,440.405,441.631,28.421,256.418,484.415,228.022,456.019,684.016
rea,ste,1,130518,rea_ste_run1_130518,NP,7,2,setup,2800,0,990,2,1,558196,567012,568002,114592,30,443.604,452.42,453.41,28.421,256.418,484.415,228.022,456.019,684.016
rea,ste,1,130518,rea_ste_run1_130518,NP,5,3,answer,2800,1,1238,1,1,601406,610205,611443,114592,31,486.814,495.613,496.851,28.421,256.418,484.415,228.022,456.019,684.016
rea,ste,1,130518,rea_ste_run1_130518,RN,5,2,hawk,1600,0,931,1,2,614604,623403,624334,114592,32,500.012,508.811,509.742,28.421,256.418,484.415,228.022,456.019,684.016
rea,ste,1,130518,rea_ste_run1_130518,NN,8,1,train,4000,1,752,2,2,626602,635401,636153,114592,33,512.01,520.809,521.561,28.421,256.418,484.415,228.022,456.019,684.016
rea,ste,1,130518,rea_ste_run1_130518,RN,8,2,poppy,4000,1,1507,2,2,641000,649798,651305,114592,34,526.408,535.206,536.713,28.421,256.418,484.415,228.022,456.019,684.016
rea,ste,1,130518,rea_ste_run1_130518,RN,7,2,wave,4000,0,0,,2,655397,664196,0,114592,35,540.805,549.604,-114.592,28.421,256.418,484.415,228.022,456.019,684.016
rea,ste,1,130518,rea_ste_run1_130518,RN,8,2,days,2800,0,1801,1,2,669812,678610,680411,114592,36,555.22,564.018,565.819,28.421,256.418,484.415,228.022,456.019,684.016
rea,ste,1,130518,rea_ste_run1_130518,RN,7,2,need,1600,1,901,2,2,683010,691808,692709,114592,37,568.418,577.216,578.117,28.421,256.418,484.415,228.022,456.019,684.016
rea,ste,1,130518,rea_ste_run1_130518,NP,5,3,hose,1600,1,941,1,1,695008,703806,704747,114592,38,580.416,589.214,590.155,28.421,256.418,484.415,228.022,456.019,684.016
rea,ste,1,130518,rea_ste_run1_130518,RN,5,2,drip,1600,1,801,2,2,707006,715804,716605,114592,39,592.414,601.212,602.013,28.421,256.418,484.415,228.022,456.019,684.016
rea,ste,1,130518,rea_ste_run1_130518,NN,5,1,finger,4000,1,805,2,2,719004,727803,728608,114592,40,604.412,613.211,614.016,28.421,256.418,484.415,228.022,456.019,684.016
rea,ste,1,130518,rea_ste_run1_130518,NP,8,2,charge,2800,1,782,1,1,733402,742200,742982,114592,41,618.81,627.608,628.39,28.421,256.418,484.415,228.022,456.019,684.016
rea,ste,1,130518,rea_ste_run1_130518,NP,7,1,drum,2800,0,1422,2,1,746600,755398,756820,114592,42,632.008,640.806,642.228,28.421,256.418,484.415,228.022,456.019,684.016
rea,ste,1,130518,rea_ste_run1_130518,NP,5,3,spell,1600,0,837,2,1,759797,768596,769433,114592,43,645.205,654.004,654.841,28.421,256.418,484.415,228.022,456.019,684.016
rea,ste,1,130518,rea_ste_run1_130518,NP,6,1,people,2800,1,739,1,1,771796,780611,781350,114592,44,657.204,666.019,666.758,28.421,256.418,484.415,228.022,456.019,684.016
rea,ste,1,130518,rea_ste_run1_130518,NP,8,2,rattle,4000,1,1171,1,1,785010,793809,794980,114592,45,670.418,679.217,680.388,28.421,256.418,484.415,228.022,456.019,684.016
rea,ste,2,130518,rea_ste_run2_130518,NN,5,1,food,1600,1,1203,2,2,915343,924142,925345,884540,1,30.803,39.602,40.805,28.404,256.417,484.414,228.022,456.019,684.016
rea,ste,2,130518,rea_ste_run2_130518,NP,8,2,rider,4000,1,1275,1,1,927358,936157,937432,884540,2,42.818,51.617,52.892,28.404,256.417,484.414,228.022,456.019,684.016
rea,ste,2,130518,rea_ste_run2_130518,RN,8,2,slug,2800,0,1135,1,2,941756,950554,951689,884540,3,57.216,66.014,67.149,28.404,256.417,484.414,228.022,456.019,684.016
rea,ste,2,130518,rea_ste_run2_130518,RN,8,2,witch,2800,1,990,2,2,954954,963752,964742,884540,4,70.414,79.212,80.202,28.404,256.417,484.414,228.022,456.019,684.016
rea,ste,2,130518,rea_ste_run2_130518,RN,5,2,stain,4000,1,695,2,2,968151,976950,977645,884540,5,83.611,92.41,93.105,28.404,256.417,484.414,228.022,456.019,684.016
rea,ste,2,130518,rea_ste_run2_130518,NN,7,1,herd,1600,1,860,2,2,982549,991348,992208,884540,6,98.009,106.808,107.668,28.404,256.417,484.414,228.022,456.019,684.016
rea,ste,2,130518,rea_ste_run2_130518,NP,7,1,flag,2800,1,896,1,1,994547,1003346,1004242,884540,7,110.007,118.806,119.702,28.404,256.417,484.414,228.022,456.019,684.016
rea,ste,2,130518,rea_ste_run2_130518,RN,6,1,maid,1600,1,951,2,2,1007745,1016544,1017495,884540,8,123.205,132.004,132.955,28.404,256.417,484.414,228.022,456.019,684.016
rea,ste,2,130518,rea_ste_run2_130518,NP,6,1,wall,1600,1,786,1,1,1019743,1028542,1029328,884540,9,135.203,144.002,144.788,28.404,256.417,484.414,228.022,456.019,684.016
rea,ste,2,130518,rea_ste_run2_130518,NP,5,3,zipper,4000,1,799,1,1,1031758,1040557,1041356,884540,10,147.218,156.017,156.816,28.404,256.417,484.414,228.022,456.019,684.016
rea,ste,2,130518,rea_ste_run2_130518,RN,5,2,pair,1600,0,0,,2,1046156,1054954,0,884540,11,161.616,170.414,-884.54,28.404,256.417,484.414,228.022,456.019,684.016
rea,ste,2,130518,rea_ste_run2_130518,NP,8,2,tree,2800,1,1074,1,1,1058154,1066952,1068026,884540,12,173.614,182.412,183.486,28.404,256.417,484.414,228.022,456.019,684.016
rea,ste,2,130518,rea_ste_run2_130518,NP,5,3,photo,4000,1,1013,1,1,1071352,1080150,1081163,884540,13,186.812,195.61,196.623,28.404,256.417,484.414,228.022,456.019,684.016
rea,ste,2,130518,rea_ste_run2_130518,NP,5,3,girl,4000,1,872,1,1,1085749,1094548,1095420,884540,14,201.209,210.008,210.88,28.404,256.417,484.414,228.022,456.019,684.016
rea,ste,2,130518,rea_ste_run2_130518,RN,7,1,quart,2800,1,828,2,2,1100147,1108946,1109774,884540,15,215.607,224.406,225.234,28.404,256.417,484.414,228.022,456.019,684.016
rea,ste,2,130518,rea_ste_run2_130518,NN,8,1,rest,4000,1,708,2,2,1143357,1152155,1152863,884540,16,258.817,267.615,268.323,28.404,256.417,484.414,228.022,456.019,684.016
rea,ste,2,130518,rea_ste_run2_130518,NP,7,2,singer,1600,1,903,1,1,1157754,1166553,1167456,884540,17,273.214,282.013,282.916,28.404,256.417,484.414,228.022,456.019,684.016
rea,ste,2,130518,rea_ste_run2_130518,RN,8,2,prince,2800,0,1000,1,2,1169753,1178551,1179551,884540,18,285.213,294.011,295.011,28.404,256.417,484.414,228.022,456.019,684.016
rea,ste,2,130518,rea_ste_run2_130518,NP,5,3,pals,2800,1,773,1,1,1182950,1191749,1192522,884540,19,298.41,307.209,307.982,28.404,256.417,484.414,228.022,456.019,684.016
rea,ste,2,130518,rea_ste_run2_130518,NP,5,3,cotton,2800,1,1023,1,1,1196148,1204947,1205970,884540,20,311.608,320.407,321.43,28.404,256.417,484.414,228.022,456.019,684.016
rea,ste,2,130518,rea_ste_run2_130518,NP,5,3,chest,1600,1,741,1,1,1209346,1218145,1218886,884540,21,324.806,333.605,334.346,28.404,256.417,484.414,228.022,456.019,684.016
rea,ste,2,130518,rea_ste_run2_130518,NP,8,2,dawn,4000,1,688,1,1,1221344,1230143,1230831,884540,22,336.804,345.603,346.291,28.404,256.417,484.414,228.022,456.019,684.016
rea,ste,2,130518,rea_ste_run2_130518,RN,5,2,praise,1600,1,1166,2,2,1235742,1244557,1245723,884540,23,351.202,360.017,361.183,28.404,256.417,484.414,228.022,456.019,684.016
rea,ste,2,130518,rea_ste_run2_130518,RN,5,2,walker,1600,1,1027,2,2,1247757,1256555,1257582,884540,24,363.217,372.015,373.042,28.404,256.417,484.414,228.022,456.019,684.016
rea,ste,2,130518,rea_ste_run2_130518,NN,5,1,grass,1600,1,717,2,2,1259755,1268553,1269270,884540,25,375.215,384.013,384.73,28.404,256.417,484.414,228.022,456.019,684.016
rea,ste,2,130518,rea_ste_run2_130518,NP,8,2,charm,4000,1,728,1,1,1271753,1280552,1281280,884540,26,387.213,396.012,396.74,28.404,256.417,484.414,228.022,456.019,684.016
rea,ste,2,130518,rea_ste_run2_130518,RN,8,2,barber,2800,0,884,1,2,1286151,1294949,1295833,884540,27,401.611,410.409,411.293,28.404,256.417,484.414,228.022,456.019,684.016
rea,ste,2,130518,rea_ste_run2_130518,RN,6,1,motor,4000,0,1068,1,2,1299349,1308147,1309215,884540,28,414.809,423.607,424.675,28.404,256.417,484.414,228.022,456.019,684.016
rea,ste,2,130518,rea_ste_run2_130518,RN,7,1,east,4000,1,986,2,2,1313746,1322545,1323531,884540,29,429.206,438.005,438.991,28.404,256.417,484.414,228.022,456.019,684.016
rea,ste,2,130518,rea_ste_run2_130518,NP,7,2,oats,2800,1,723,1,1,1328144,1336943,1337666,884540,30,443.604,452.403,453.126,28.404,256.417,484.414,228.022,456.019,684.016
rea,ste,2,130518,rea_ste_run2_130518,NP,8,3,slip,1600,1,1040,1,1,1371354,1380152,1381192,884540,31,486.814,495.612,496.652,28.404,256.417,484.414,228.022,456.019,684.016
rea,ste,2,130518,rea_ste_run2_130518,RN,7,2,note,2800,0,1334,1,2,1383352,1392150,1393484,884540,32,498.812,507.61,508.944,28.404,256.417,484.414,228.022,456.019,684.016
rea,ste,2,130518,rea_ste_run2_130518,RN,5,2,tile,1600,1,1568,2,2,1396550,1405348,1406916,884540,33,512.01,520.808,522.376,28.404,256.417,484.414,228.022,456.019,684.016
rea,ste,2,130518,rea_ste_run2_130518,NP,5,3,winner,2800,1,1585,1,1,1408548,1417346,1418931,884540,34,524.008,532.806,534.391,28.404,256.417,484.414,228.022,456.019,684.016
rea,ste,2,130518,rea_ste_run2_130518,NN,5,1,flick,4000,1,915,2,2,1421746,1430544,1431459,884540,35,537.206,546.004,546.919,28.404,256.417,484.414,228.022,456.019,684.016
rea,ste,2,130518,rea_ste_run2_130518,NP,8,3,glove,2800,1,1360,1,1,1436143,1444942,1446302,884540,36,551.603,560.402,561.762,28.404,256.417,484.414,228.022,456.019,684.016
rea,ste,2,130518,rea_ste_run2_130518,RN,5,2,list,4000,1,872,2,2,1449358,1458157,1459029,884540,37,564.818,573.617,574.489,28.404,256.417,484.414,228.022,456.019,684.016
rea,ste,2,130518,rea_ste_run2_130518,NP,5,3,beach,2800,0,866,2,1,1463756,1472554,1473420,884540,38,579.216,588.014,588.88,28.404,256.417,484.414,228.022,456.019,684.016
rea,ste,2,130518,rea_ste_run2_130518,NP,5,3,bugs,1600,1,786,1,1,1476954,1485752,1486538,884540,39,592.414,601.212,601.998,28.404,256.417,484.414,228.022,456.019,684.016
rea,ste,2,130518,rea_ste_run2_130518,NP,7,1,suit,4000,1,949,1,1,1488952,1497750,1498699,884540,40,604.412,613.21,614.159,28.404,256.417,484.414,228.022,456.019,684.016
rea,ste,2,130518,rea_ste_run2_130518,RN,8,1,dock,1600,0,0,,2,1503349,1512148,0,884540,41,618.809,627.608,-884.54,28.404,256.417,484.414,228.022,456.019,684.016
rea,ste,2,130518,rea_ste_run2_130518,RN,6,1,folder,4000,0,1127,1,2,1515347,1524146,1525273,884540,42,630.807,639.606,640.733,28.404,256.417,484.414,228.022,456.019,684.016
rea,ste,2,130518,rea_ste_run2_130518,NP,8,3,owner,2800,1,804,1,1,1529745,1538544,1539348,884540,43,645.205,654.004,654.808,28.404,256.417,484.414,228.022,456.019,684.016
rea,ste,2,130518,rea_ste_run2_130518,NP,6,1,washer,4000,1,582,1,1,1542943,1551758,1552340,884540,44,658.403,667.218,667.8,28.404,256.417,484.414,228.022,456.019,684.016
rea,ste,2,130518,rea_ste_run2_130518,RN,7,2,void,1600,0,1195,1,2,1557357,1566156,1567351,884540,45,672.817,681.616,682.811,28.404,256.417,484.414,228.022,456.019,684.016
bas,ste,1,155938,bas_ste_run1_155938,NP,5,3,syrup,2800,1,1521,1,1,136596,145395,146916,105780,1,30.816,39.615,41.136,28.417,256.415,484.413,228.019,456.017,684.015
bas,ste,1,155938,bas_ste_run1_155938,NN,8,2,scale,1600,1,893,2,2,149794,158593,159486,105780,2,44.014,52.813,53.706,28.417,256.415,484.413,228.019,456.017,684.015
bas,ste,1,155938,bas_ste_run1_155938,NN,8,2,doll,4000,1,804,2,2,161792,170591,171395,105780,3,56.012,64.811,65.615,28.417,256.415,484.413,228.019,456.017,684.015
bas,ste,1,155938,bas_ste_run1_155938,NP,5,3,threat,2800,0,0,,1,176190,184989,0,105780,4,70.41,79.209,-105.78,28.417,256.415,484.413,228.019,456.017,684.015
bas,ste,1,155938,bas_ste_run1_155938,NN,6,1,parrot,1600,1,742,2,2,189388,198187,198929,105780,5,83.608,92.407,93.149,28.417,256.415,484.413,228.019,456.017,684.015
bas,ste,1,155938,bas_ste_run1_155938,NP,8,2,chance,2800,1,1205,1,1,201386,210201,211406,105780,6,95.606,104.421,105.626,28.417,256.415,484.413,228.019,456.017,684.015
bas,ste,1,155938,bas_ste_run1_155938,NN,5,2,blur,2800,1,867,2,2,214601,223399,224266,105780,7,108.821,117.619,118.486,28.417,256.415,484.413,228.019,456.017,684.015
bas,ste,1,155938,bas_ste_run1_155938,NP,7,2,rash,1600,1,1132,1,1,227799,236597,237729,105780,8,122.019,130.817,131.949,28.417,256.415,484.413,228.019,456.017,684.015
bas,ste,1,155938,bas_ste_run1_155938,NN,5,2,tube,4000,1,791,2,2,239797,248595,249386,105780,9,134.017,142.815,143.606,28.417,256.415,484.413,228.019,456.017,684.015
bas,ste,1,155938,bas_ste_run1_155938,NP,5,3,share,1600,1,1148,1,1,254195,262993,264141,105780,10,148.415,157.213,158.361,28.417,256.415,484.413,228.019,456.017,684.015
bas,ste,1,155938,bas_ste_run1_155938,NP,7,2,wealth,4000,1,1134,1,1,266193,274991,276125,105780,11,160.413,169.211,170.345,28.417,256.415,484.413,228.019,456.017,684.015
bas,ste,1,155938,bas_ste_run1_155938,NP,8,2,bush,4000,1,1352,1,1,280591,289389,290741,105780,12,174.811,183.609,184.961,28.417,256.415,484.413,228.019,456.017,684.015
bas,ste,1,155938,bas_ste_run1_155938,NN,7,1,straw,1600,1,986,2,2,294988,303787,304773,105780,13,189.208,198.007,198.993,28.417,256.415,484.413,228.019,456.017,684.015
bas,ste,1,155938,bas_ste_run1_155938,NP,6,1,frost,2800,1,892,1,1,306986,315802,316694,105780,14,201.206,210.022,210.914,28.417,256.415,484.413,228.019,456.017,684.015
bas,ste,1,155938,bas_ste_run1_155938,RN,5,1,quart,4000,1,935,2,2,320201,329000,329935,105780,15,214.421,223.22,224.155,28.417,256.415,484.413,228.019,456.017,684.015
bas,ste,1,155938,bas_ste_run1_155938,NN,6,1,taxi,1600,1,921,2,2,364594,373393,374314,105780,16,258.814,267.613,268.534,28.417,256.415,484.413,228.019,456.017,684.015
bas,ste,1,155938,bas_ste_run1_155938,NN,8,2,liar,4000,1,966,2,2,376592,385391,386357,105780,17,270.812,279.611,280.577,28.417,256.415,484.413,228.019,456.017,684.015
bas,ste,1,155938,bas_ste_run1_155938,NP,7,2,need,4000,1,1964,1,1,390990,399789,401753,105780,18,285.21,294.009,295.973,28.417,256.415,484.413,228.019,456.017,684.015
bas,ste,1,155938,bas_ste_run1_155938,NP,7,2,bean,2800,1,1095,1,1,405388,414186,415281,105780,19,299.608,308.406,309.501,28.417,256.415,484.413,228.019,456.017,684.015
bas,ste,1,155938,bas_ste_run1_155938,NP,8,3,bees,2800,1,816,1,1,418586,427401,428217,105780,20,312.806,321.621,322.437,28.417,256.415,484.413,228.019,456.017,684.015
bas,ste,1,155938,bas_ste_run1_155938,NP,5,3,visit,4000,0,1453,2,1,431800,440599,442052,105780,21,326.02,334.819,336.272,28.417,256.415,484.413,228.019,456.017,684.015
bas,ste,1,155938,bas_ste_run1_155938,NN,7,1,logic,1600,1,855,2,2,446198,454997,455852,105780,22,340.418,349.217,350.072,28.417,256.415,484.413,228.019,456.017,684.015
bas,ste,1,155938,bas_ste_run1_155938,NP,5,3,people,1600,1,1047,1,1,458196,466995,468042,105780,23,352.416,361.215,362.262,28.417,256.415,484.413,228.019,456.017,684.015
bas,ste,1,155938,bas_ste_run1_155938,NN,8,2,heater,2800,1,973,2,2,470194,478993,479966,105780,24,364.414,373.213,374.186,28.417,256.415,484.413,228.019,456.017,684.015
bas,ste,1,155938,bas_ste_run1_155938,RN,5,1,noise,4000,1,768,2,2,483392,492191,492959,105780,25,377.612,386.411,387.179,28.417,256.415,484.413,228.019,456.017,684.015
bas,ste,1,155938,bas_ste_run1_155938,NN,5,2,pole,1600,0,0,,2,497790,506589,0,105780,26,392.01,400.809,-105.78,28.417,256.415,484.413,228.019,456.017,684.015
bas,ste,1,155938,bas_ste_run1_155938,NP,8,3,city,2800,1,1338,1,1,509788,518587,519925,105780,27,404.008,412.807,414.145,28.417,256.415,484.413,228.019,456.017,684.015
bas,ste,1,155938,bas_ste_run1_155938,NP,8,3,carpet,1600,1,1173,1,1,522986,531802,532975,105780,28,417.206,426.022,427.195,28.417,256.415,484.413,228.019,456.017,684.015
bas,ste,1,155938,bas_ste_run1_155938,NP,5,3,tags,2800,1,1013,1,1,535001,543800,544813,105780,29,429.221,438.02,439.033,28.417,256.415,484.413,228.019,456.017,684.015
bas,ste,1,155938,bas_ste_run1_155938,NN,5,2,greed,4000,1,804,2,2,548199,556998,557802,105780,30,442.419,451.218,452.022,28.417,256.415,484.413,228.019,456.017,684.015
bas,ste,1,155938,bas_ste_run1_155938,NN,5,2,pans,4000,1,1304,2,2,592592,601391,602695,105780,31,486.812,495.611,496.915,28.417,256.415,484.413,228.019,456.017,684.015
bas,ste,1,155938,bas_ste_run1_155938,NP,5,3,muscle,1600,1,1293,1,1,606990,615789,617082,105780,32,501.21,510.009,511.302,28.417,256.415,484.413,228.019,456.017,684.015
bas,ste,1,155938,bas_ste_run1_155938,NP,8,2,bugs,2800,0,0,,1,618988,627787,0,105780,33,513.208,522.007,-105.78,28.417,256.415,484.413,228.019,456.017,684.015
bas,ste,1,155938,bas_ste_run1_155938,RN,5,1,fusion,4000,1,1306,2,2,632186,641001,642307,105780,34,526.406,535.221,536.527,28.417,256.415,484.413,228.019,456.017,684.015
bas,ste,1,155938,bas_ste_run1_155938,NN,8,2,shell,1600,1,1036,2,2,646601,655399,656435,105780,35,540.821,549.619,550.655,28.417,256.415,484.413,228.019,456.017,684.015
bas,ste,1,155938,bas_ste_run1_155938,NP,7,1,clue,2800,0,0,,1,658599,667397,0,105780,36,552.819,561.617,-105.78,28.417,256.415,484.413,228.019,456.017,684.015
bas,ste,1,155938,bas_ste_run1_155938,NP,8,2,wife,4000,1,960,1,1,671797,680595,681555,105780,37,566.017,574.815,575.775,28.417,256.415,484.413,228.019,456.017,684.015
bas,ste,1,155938,bas_ste_run1_155938,NN,5,2,gift,1600,1,727,2,2,686194,694993,695720,105780,38,580.414,589.213,589.94,28.417,256.415,484.413,228.019,456.017,684.015
bas,ste,1,155938,bas_ste_run1_155938,NP,6,1,food,4000,1,1351,1,1,698193,706991,708342,105780,39,592.413,601.211,602.562,28.417,256.415,484.413,228.019,456.017,684.015
bas,ste,1,155938,bas_ste_run1_155938,RN,8,1,ground,2800,1,1002,2,2,712590,721389,722391,105780,40,606.81,615.609,616.611,28.417,256.415,484.413,228.019,456.017,684.015
bas,ste,1,155938,bas_ste_run1_155938,NP,5,3,marker,4000,0,1847,2,1,725788,734587,736434,105780,41,620.008,628.807,630.654,28.417,256.415,484.413,228.019,456.017,684.015
bas,ste,1,155938,bas_ste_run1_155938,NN,8,2,signal,1600,1,894,2,2,740186,749001,749895,105780,42,634.406,643.221,644.115,28.417,256.415,484.413,228.019,456.017,684.015
bas,ste,1,155938,bas_ste_run1_155938,NP,5,3,curve,1600,1,961,1,1,752201,760999,761960,105780,43,646.421,655.219,656.18,28.417,256.415,484.413,228.019,456.017,684.015
bas,ste,1,155938,bas_ste_run1_155938,NN,7,2,pledge,2800,1,1030,2,2,764199,772998,774028,105780,44,658.419,667.218,668.248,28.417,256.415,484.413,228.019,456.017,684.015
bas,ste,1,155938,bas_ste_run1_155938,NN,7,2,berry,2800,1,717,2,2,777397,786196,786913,105780,45,671.617,680.416,681.133,28.417,256.415,484.413,228.019,456.017,684.015
bas,ste,2,155938,bas_ste_run2_155938,NP,5,3,north,1600,1,1259,1,1,74506,83305,84564,43693,1,30.813,39.612,40.871,28.414,256.412,484.41,228.016,456.014,684.012
bas,ste,2,155938,bas_ste_run2_155938,NP,5,3,ransom,2800,1,916,1,1,86505,95303,96219,43693,2,42.812,51.61,52.526,28.414,256.412,484.41,228.016,456.014,684.012
bas,ste,2,155938,bas_ste_run2_155938,NN,5,2,chin,1600,1,860,2,2,99703,108501,109361,43693,3,56.01,64.808,65.668,28.414,256.412,484.41,228.016,456.014,684.012
bas,ste,2,155938,bas_ste_run2_155938,NN,6,1,whale,2800,1,778,2,2,111701,120499,121277,43693,4,68.008,76.806,77.584,28.414,256.412,484.41,228.016,456.014,684.012
bas,ste,2,155938,bas_ste_run2_155938,NN,8,2,cotton,4000,1,1201,2,2,124899,133697,134898,43693,5,81.206,90.004,91.205,28.414,256.412,484.41,228.016,456.014,684.012
bas,ste,2,155938,bas_ste_run2_155938,NP,5,3,wheel,1600,1,1230,1,1,139296,148095,149325,43693,6,95.603,104.402,105.632,28.414,256.412,484.41,228.016,456.014,684.012
bas,ste,2,155938,bas_ste_run2_155938,RN,5,1,cabin,2800,1,1363,2,2,151295,160110,161473,43693,7,107.602,116.417,117.78,28.414,256.412,484.41,228.016,456.014,684.012
bas,ste,2,155938,bas_ste_run2_155938,NN,5,2,hatch,4000,1,763,2,2,164509,173308,174071,43693,8,120.816,129.615,130.378,28.414,256.412,484.41,228.016,456.014,684.012
bas,ste,2,155938,bas_ste_run2_155938,NN,7,1,flame,4000,1,669,2,2,178907,187706,188375,43693,9,135.214,144.013,144.682,28.414,256.412,484.41,228.016,456.014,684.012
bas,ste,2,155938,bas_ste_run2_155938,NP,6,1,dollar,4000,1,1683,1,1,193305,202103,203786,43693,10,149.612,158.41,160.093,28.414,256.412,484.41,228.016,456.014,684.012
bas,ste,2,155938,bas_ste_run2_155938,NP,8,2,exam,4000,0,1555,2,1,207703,216501,218056,43693,11,164.01,172.808,174.363,28.414,256.412,484.41,228.016,456.014,684.012
bas,ste,2,155938,bas_ste_run2_155938,NN,8,2,lesson,2800,1,906,2,2,222100,230899,231805,43693,12,178.407,187.206,188.112,28.414,256.412,484.41,228.016,456.014,684.012
bas,ste,2,155938,bas_ste_run2_155938,NP,7,1,teeth,1600,1,1417,1,1,235298,244097,245514,43693,13,191.605,200.404,201.821,28.414,256.412,484.41,228.016,456.014,684.012
bas,ste,2,155938,bas_ste_run2_155938,NP,8,2,kids,2800,1,1170,1,1,247296,256095,257265,43693,14,203.603,212.402,213.572,28.414,256.412,484.41,228.016,456.014,684.012
bas,ste,2,155938,bas_ste_run2_155938,RN,7,1,jars,1600,1,1561,2,2,260511,269310,270871,43693,15,216.818,225.617,227.178,28.414,256.412,484.41,228.016,456.014,684.012
bas,ste,2,155938,bas_ste_run2_155938,NP,5,3,harp,2800,0,854,2,1,302505,311303,312157,43693,16,258.812,267.61,268.464,28.414,256.412,484.41,228.016,456.014,684.012
bas,ste,2,155938,bas_ste_run2_155938,NN,8,2,sled,4000,1,750,2,2,315702,324501,325251,43693,17,272.009,280.808,281.558,28.414,256.412,484.41,228.016,456.014,684.012
bas,ste,2,155938,bas_ste_run2_155938,RN,8,1,house,4000,1,1045,2,2,330100,338899,339944,43693,18,286.407,295.206,296.251,28.414,256.412,484.41,228.016,456.014,684.012
bas,ste,2,155938,bas_ste_run2_155938,NP,5,3,store,4000,1,1023,1,1,344498,353297,354320,43693,19,300.805,309.604,310.627,28.414,256.412,484.41,228.016,456.014,684.012
bas,ste,2,155938,bas_ste_run2_155938,RN,5,1,soil,2800,1,818,2,2,358896,367711,368529,43693,20,315.203,324.018,324.836,28.414,256.412,484.41,228.016,456.014,684.012
bas,ste,2,155938,bas_ste_run2_155938,NN,6,1,zebra,1600,1,773,2,2,372110,380909,381682,43693,21,328.417,337.216,337.989,28.414,256.412,484.41,228.016,456.014,684.012
bas,ste,2,155938,bas_ste_run2_155938,NP,8,2,action,1600,1,1208,1,1,384109,392907,394115,43693,22,340.416,349.214,350.422,28.414,256.412,484.41,228.016,456.014,684.012
bas,ste,2,155938,bas_ste_run2_155938,NN,7,1,poison,4000,1,1464,2,2,396107,404905,406369,43693,23,352.414,361.212,362.676,28.414,256.412,484.41,228.016,456.014,684.012
bas,ste,2,155938,bas_ste_run2_155938,NN,5,2,heaven,2800,1,809,2,2,410504,419303,420112,43693,24,366.811,375.61,376.419,28.414,256.412,484.41,228.016,456.014,684.012
bas,ste,2,155938,bas_ste_run2_155938,NP,8,2,text,4000,1,1101,1,1,423702,432501,433602,43693,25,380.009,388.808,389.909,28.414,256.412,484.41,228.016,456.014,684.012
bas,ste,2,155938,bas_ste_run2_155938,NP,5,3,others,2800,1,801,1,1,438100,446899,447700,43693,26,394.407,403.206,404.007,28.414,256.412,484.41,228.016,456.014,684.012
bas,ste,2,155938,bas_ste_run2_155938,NP,7,2,crime,2800,1,1176,1,1,451298,460097,461273,43693,27,407.605,416.404,417.58,28.414,256.412,484.41,228.016,456.014,684.012
bas,ste,2,155938,bas_ste_run2_155938,NN,5,2,barber,1600,1,1333,2,2,464496,473311,474644,43693,28,420.803,429.618,430.951,28.414,256.412,484.41,228.016,456.014,684.012
bas,ste,2,155938,bas_ste_run2_155938,NN,8,2,steel,1600,0,1842,1,2,476511,485310,487152,43693,29,432.818,441.617,443.459,28.414,256.412,484.41,228.016,456.014,684.012
bas,ste,2,155938,bas_ste_run2_155938,NP,7,2,cherry,1600,1,980,1,1,488509,497308,498288,43693,30,444.816,453.615,454.595,28.414,256.412,484.41,228.016,456.014,684.012
bas,ste,2,155938,bas_ste_run2_155938,NN,7,2,book,1600,1,797,2,2,530503,539301,540098,43693,31,486.81,495.608,496.405,28.414,256.412,484.41,228.016,456.014,684.012
bas,ste,2,155938,bas_ste_run2_155938,NP,7,1,photo,2800,1,1241,1,1,542501,551299,552540,43693,32,498.808,507.606,508.847,28.414,256.412,484.41,228.016,456.014,684.012
bas,ste,2,155938,bas_ste_run2_155938,NP,6,1,profit,1600,1,911,1,1,555699,564497,565408,43693,33,512.006,520.804,521.715,28.414,256.412,484.41,228.016,456.014,684.012
bas,ste,2,155938,bas_ste_run2_155938,NN,7,2,word,4000,1,934,2,2,567697,576495,577429,43693,34,524.004,532.802,533.736,28.414,256.412,484.41,228.016,456.014,684.012
bas,ste,2,155938,bas_ste_run2_155938,NP,8,3,paper,2800,0,1215,2,1,582095,590910,592125,43693,35,538.402,547.217,548.432,28.414,256.412,484.41,228.016,456.014,684.012
bas,ste,2,155938,bas_ste_run2_155938,NP,8,3,pony,1600,1,1875,1,1,595309,604108,605983,43693,36,551.616,560.415,562.29,28.414,256.412,484.41,228.016,456.014,684.012
bas,ste,2,155938,bas_ste_run2_155938,NP,5,3,fluid,2800,1,1162,1,1,607307,616106,617268,43693,37,563.614,572.413,573.575,28.414,256.412,484.41,228.016,456.014,684.012
bas,ste,2,155938,bas_ste_run2_155938,NN,8,1,church,4000,1,894,2,2,620505,629304,630198,43693,38,576.812,585.611,586.505,28.414,256.412,484.41,228.016,456.014,684.012
bas,ste,2,155938,bas_ste_run2_155938,NN,5,2,story,2800,1,1203,2,2,634903,643702,644905,43693,39,591.21,600.009,601.212,28.414,256.412,484.41,228.016,456.014,684.012
bas,ste,2,155938,bas_ste_run2_155938,NP,5,3,yard,1600,1,1332,1,1,648101,656900,658232,43693,40,604.408,613.207,614.539,28.414,256.412,484.41,228.016,456.014,684.012
bas,ste,2,155938,bas_ste_run2_155938,RN,5,1,owner,4000,1,933,2,2,660099,668898,669831,43693,41,616.406,625.205,626.138,28.414,256.412,484.41,228.016,456.014,684.012
bas,ste,2,155938,bas_ste_run2_155938,NP,5,3,honey,4000,1,880,1,1,674497,683296,684176,43693,42,630.804,639.603,640.483,28.414,256.412,484.41,228.016,456.014,684.012
bas,ste,2,155938,bas_ste_run2_155938,NN,6,1,cows,1600,1,1044,2,2,688895,697710,698754,43693,43,645.202,654.017,655.061,28.414,256.412,484.41,228.016,456.014,684.012
bas,ste,2,155938,bas_ste_run2_155938,NP,8,3,pilot,4000,0,1655,2,1,700910,709708,711363,43693,44,657.217,666.015,667.67,28.414,256.412,484.41,228.016,456.014,684.012
bas,ste,2,155938,bas_ste_run2_155938,NN,5,2,train,2800,1,780,2,2,715307,724106,724886,43693,45,671.614,680.413,681.193,28.414,256.412,484.41,228.016,456.014,684.012
pro,ste,1,155938,pro_ste_run1_155938,NN,2,2,vision,1600,1,874,2,2,130963,139761,140635,100148,1,30.815,39.613,40.487,28.415,256.412,484.409,228.017,456.014,684.011
pro,ste,1,155938,pro_ste_run1_155938,NP,5,3,park,2800,1,798,1,1,142961,151759,152557,100148,2,42.813,51.611,52.409,28.415,256.412,484.409,228.017,456.014,684.011
pro,ste,1,155938,pro_ste_run1_155938,NN,4,1,idea,1600,1,995,2,2,156159,164957,165952,100148,3,56.011,64.809,65.804,28.415,256.412,484.409,228.017,456.014,684.011
pro,ste,1,155938,pro_ste_run1_155938,NP,5,3,boiler,2800,1,1189,1,1,168157,176955,178144,100148,4,68.009,76.807,77.996,28.415,256.412,484.409,228.017,456.014,684.011
pro,ste,1,155938,pro_ste_run1_155938,NP,3,2,ranch,1600,1,989,1,1,181355,190153,191142,100148,5,81.207,90.005,90.994,28.415,256.412,484.409,228.017,456.014,684.011
pro,ste,1,155938,pro_ste_run1_155938,NN,5,2,deed,2800,1,753,2,2,193353,202151,202904,100148,6,93.205,102.003,102.756,28.415,256.412,484.409,228.017,456.014,684.011
pro,ste,1,155938,pro_ste_run1_155938,NN,2,2,access,4000,1,572,2,2,206551,215366,215938,100148,7,106.403,115.218,115.79,28.415,256.412,484.409,228.017,456.014,684.011
pro,ste,1,155938,pro_ste_run1_155938,NP,4,1,ways,4000,1,1102,1,1,220965,229764,230866,100148,8,120.817,129.616,130.718,28.415,256.412,484.409,228.017,456.014,684.011
pro,ste,1,155938,pro_ste_run1_155938,RN,5,1,keeper,4000,1,918,2,2,235363,244161,245079,100148,9,135.215,144.013,144.931,28.415,256.412,484.409,228.017,456.014,684.011
pro,ste,1,155938,pro_ste_run1_155938,NN,5,2,item,4000,1,981,2,2,249760,258559,259540,100148,10,149.612,158.411,159.392,28.415,256.412,484.409,228.017,456.014,684.011
pro,ste,1,155938,pro_ste_run1_155938,NN,3,1,hope,2800,1,1055,2,2,264158,272957,274012,100148,11,164.01,172.809,173.864,28.415,256.412,484.409,228.017,456.014,684.011
pro,ste,1,155938,pro_ste_run1_155938,NP,5,3,parent,1600,1,1166,1,1,277356,286155,287321,100148,12,177.208,186.007,187.173,28.415,256.412,484.409,228.017,456.014,684.011
pro,ste,1,155938,pro_ste_run1_155938,NP,2,2,dryer,4000,1,816,1,1,289354,298153,298969,100148,13,189.206,198.005,198.821,28.415,256.412,484.409,228.017,456.014,684.011
pro,ste,1,155938,pro_ste_run1_155938,NP,2,2,suit,2800,1,793,1,1,303752,312550,313343,100148,14,203.604,212.402,213.195,28.415,256.412,484.409,228.017,456.014,684.011
pro,ste,1,155938,pro_ste_run1_155938,NP,3,2,nail,1600,1,901,1,1,316950,325765,326666,100148,15,216.802,225.617,226.518,28.415,256.412,484.409,228.017,456.014,684.011
pro,ste,1,155938,pro_ste_run1_155938,NP,5,3,menu,4000,1,828,1,1,358960,367758,368586,100148,16,258.812,267.61,268.438,28.415,256.412,484.409,228.017,456.014,684.011
pro,ste,1,155938,pro_ste_run1_155938,NN,5,2,rage,1600,1,1148,2,2,373357,382156,383304,100148,17,273.209,282.008,283.156,28.415,256.412,484.409,228.017,456.014,684.011
pro,ste,1,155938,pro_ste_run1_155938,NN,2,2,laser,1600,1,645,2,2,385356,394154,394799,100148,18,285.208,294.006,294.651,28.415,256.412,484.409,228.017,456.014,684.011
pro,ste,1,155938,pro_ste_run1_155938,NP,2,3,wool,2800,0,0,,1,397354,406152,0,100148,19,297.206,306.004,-100.148,28.415,256.412,484.409,228.017,456.014,684.011
pro,ste,1,155938,pro_ste_run1_155938,NP,5,3,color,4000,1,891,1,1,410552,419350,420241,100148,20,310.404,319.202,320.093,28.415,256.412,484.409,228.017,456.014,684.011
pro,ste,1,155938,pro_ste_run1_155938,NP,3,2,saint,1600,1,944,1,1,424966,433765,434709,100148,21,324.818,333.617,334.561,28.415,256.412,484.409,228.017,456.014,684.011
pro,ste,1,155938,pro_ste_run1_155938,NN,4,1,critic,2800,1,841,2,2,436964,445763,446604,100148,22,336.816,345.615,346.456,28.415,256.412,484.409,228.017,456.014,684.011
pro,ste,1,155938,pro_ste_run1_155938,NN,5,2,roses,2800,1,1645,2,2,450162,458960,460605,100148,23,350.014,358.812,360.457,28.415,256.412,484.409,228.017,456.014,684.011
pro,ste,1,155938,pro_ste_run1_155938,NN,3,1,rumor,4000,1,755,2,2,463360,472158,472913,100148,24,363.212,372.01,372.765,28.415,256.412,484.409,228.017,456.014,684.011
pro,ste,1,155938,pro_ste_run1_155938,NP,3,2,heel,2800,1,879,1,1,477757,486556,487435,100148,25,377.609,386.408,387.287,28.415,256.412,484.409,228.017,456.014,684.011
pro,ste,1,155938,pro_ste_run1_155938,RN,5,1,shell,1600,0,1809,1,2,490955,499754,501563,100148,26,390.807,399.606,401.415,28.415,256.412,484.409,228.017,456.014,684.011
pro,ste,1,155938,pro_ste_run1_155938,NP,5,3,review,4000,1,844,1,1,502953,511752,512596,100148,27,402.805,411.604,412.448,28.415,256.412,484.409,228.017,456.014,684.011
pro,ste,1,155938,pro_ste_run1_155938,NN,2,2,rash,1600,1,675,2,2,517351,526150,526825,100148,28,417.203,426.002,426.677,28.415,256.412,484.409,228.017,456.014,684.011
pro,ste,1,155938,pro_ste_run1_155938,NP,2,3,chip,2800,1,732,1,1,529366,538165,538897,100148,29,429.218,438.017,438.749,28.415,256.412,484.409,228.017,456.014,684.011
pro,ste,1,155938,pro_ste_run1_155938,NP,2,3,parade,4000,1,876,1,1,542564,551362,552238,100148,30,442.416,451.214,452.09,28.415,256.412,484.409,228.017,456.014,684.011
pro,ste,1,155938,pro_ste_run1_155938,NP,4,1,verse,1600,1,905,1,1,586957,595755,596660,100148,31,486.809,495.607,496.512,28.415,256.412,484.409,228.017,456.014,684.011
pro,ste,1,155938,pro_ste_run1_155938,NN,3,2,torch,4000,1,855,2,2,598955,607753,608608,100148,32,498.807,507.605,508.46,28.415,256.412,484.409,228.017,456.014,684.011
pro,ste,1,155938,pro_ste_run1_155938,NN,5,2,deal,1600,1,1005,2,2,613353,622151,623156,100148,33,513.205,522.003,523.008,28.415,256.412,484.409,228.017,456.014,684.011
pro,ste,1,155938,pro_ste_run1_155938,NP,5,3,clay,4000,1,711,1,1,625351,634166,634877,100148,34,525.203,534.018,534.729,28.415,256.412,484.409,228.017,456.014,684.011
pro,ste,1,155938,pro_ste_run1_155938,NP,5,3,forest,2800,1,794,1,1,639765,648564,649358,100148,35,539.617,548.416,549.21,28.415,256.412,484.409,228.017,456.014,684.011
pro,ste,1,155938,pro_ste_run1_155938,NP,3,1,charge,2800,1,759,1,1,652963,661762,662521,100148,36,552.815,561.614,562.373,28.415,256.412,484.409,228.017,456.014,684.011
pro,ste,1,155938,pro_ste_run1_155938,NN,2,2,moose,1600,1,823,2,2,666161,674959,675782,100148,37,566.013,574.811,575.634,28.415,256.412,484.409,228.017,456.014,684.011
pro,ste,1,155938,pro_ste_run1_155938,RN,5,1,chest,2800,0,1265,1,2,678159,686958,688223,100148,38,578.011,586.81,588.075,28.415,256.412,484.409,228.017,456.014,684.011
pro,ste,1,155938,pro_ste_run1_155938,NP,2,2,paste,4000,0,0,,1,691357,700155,0,100148,39,591.209,600.007,-100.148,28.415,256.412,484.409,228.017,456.014,684.011
pro,ste,1,155938,pro_ste_run1_155938,NN,3,2,donor,1600,1,736,2,2,705755,714553,715289,100148,40,605.607,614.405,615.141,28.415,256.412,484.409,228.017,456.014,684.011
pro,ste,1,155938,pro_ste_run1_155938,NP,5,3,advice,2800,1,870,1,1,717753,726551,727421,100148,41,617.605,626.403,627.273,28.415,256.412,484.409,228.017,456.014,684.011
pro,ste,1,155938,pro_ste_run1_155938,NN,2,2,work,4000,1,784,2,2,730951,739766,740550,100148,42,630.803,639.618,640.402,28.415,256.412,484.409,228.017,456.014,684.011
pro,ste,1,155938,pro_ste_run1_155938,RN,2,1,bags,2800,0,0,,2,745365,754163,0,100148,43,645.217,654.015,-100.148,28.415,256.412,484.409,228.017,456.014,684.011
pro,ste,1,155938,pro_ste_run1_155938,NN,5,2,group,1600,1,1440,2,2,758563,767361,768801,100148,44,658.415,667.213,668.653,28.415,256.412,484.409,228.017,456.014,684.011
pro,ste,1,155938,pro_ste_run1_155938,NP,2,2,guys,4000,1,1025,1,1,770561,779359,780384,100148,45,670.413,679.211,680.236,28.415,256.412,484.409,228.017,456.014,684.011
pro,ste,2,155938,pro_ste_run2_155938,NN,4,1,campus,1600,1,752,2,2,71080,79878,80630,40272,1,30.808,39.606,40.358,28.408,256.405,484.419,228.01,456.023,684.02
pro,ste,2,155938,pro_ste_run2_155938,NP,5,3,snap,1600,1,1046,1,1,83078,91876,92922,40272,2,42.806,51.604,52.65,28.408,256.405,484.419,228.01,456.023,684.02
pro,ste,2,155938,pro_ste_run2_155938,NP,4,1,belief,4000,1,789,1,1,95076,103874,104663,40272,3,54.804,63.602,64.391,28.408,256.405,484.419,228.01,456.023,684.02
pro,ste,2,155938,pro_ste_run2_155938,NP,3,1,drip,4000,1,1312,1,1,109473,118289,119601,40272,4,69.201,78.017,79.329,28.408,256.405,484.419,228.01,456.023,684.02
pro,ste,2,155938,pro_ste_run2_155938,NP,2,2,bottle,2800,1,785,1,1,123888,132686,133471,40272,5,83.616,92.414,93.199,28.408,256.405,484.419,228.01,456.023,684.02
pro,ste,2,155938,pro_ste_run2_155938,RN,5,1,level,1600,0,1115,1,2,137086,145884,146999,40272,6,96.814,105.612,106.727,28.408,256.405,484.419,228.01,456.023,684.02
pro,ste,2,155938,pro_ste_run2_155938,NN,2,2,spice,1600,1,1575,2,2,149084,157882,159457,40272,7,108.812,117.61,119.185,28.408,256.405,484.419,228.01,456.023,684.02
pro,ste,2,155938,pro_ste_run2_155938,NN,2,2,coal,4000,1,657,2,2,161082,169881,170538,40272,8,120.81,129.609,130.266,28.408,256.405,484.419,228.01,456.023,684.02
pro,ste,2,155938,pro_ste_run2_155938,NN,3,1,film,4000,1,807,2,2,175480,184278,185085,40272,9,135.208,144.006,144.813,28.408,256.405,484.419,228.01,456.023,684.02
pro,ste,2,155938,pro_ste_run2_155938,RN,3,1,singer,2800,0,1370,1,2,189877,198676,200046,40272,10,149.605,158.404,159.774,28.408,256.405,484.419,228.01,456.023,684.02
pro,ste,2,155938,pro_ste_run2_155938,NN,5,2,herd,2800,1,993,2,2,203075,211874,212867,40272,11,162.803,171.602,172.595,28.408,256.405,484.419,228.01,456.023,684.02
pro,ste,2,155938,pro_ste_run2_155938,NP,5,3,flight,2800,1,1645,1,1,216273,225088,226733,40272,12,176.001,184.816,186.461,28.408,256.405,484.419,228.01,456.023,684.02
pro,ste,2,155938,pro_ste_run2_155938,NP,2,2,quote,4000,1,916,1,1,229488,238286,239202,40272,13,189.216,198.014,198.93,28.408,256.405,484.419,228.01,456.023,684.02
pro,ste,2,155938,pro_ste_run2_155938,NN,5,2,fury,2800,1,717,2,2,243885,252684,253401,40272,14,203.613,212.412,213.129,28.408,256.405,484.419,228.01,456.023,684.02
pro,ste,2,155938,pro_ste_run2_155938,NP,5,3,stroke,1600,1,766,1,1,257083,265882,266648,40272,15,216.811,225.61,226.376,28.408,256.405,484.419,228.01,456.023,684.02
pro,ste,2,155938,pro_ste_run2_155938,NP,3,2,gold,4000,1,740,1,1,299077,307875,308615,40272,16,258.805,267.603,268.343,28.408,256.405,484.419,228.01,456.023,684.02
pro,ste,2,155938,pro_ste_run2_155938,NP,3,2,sailor,2800,1,560,1,1,313474,322273,322833,40272,17,273.202,282.001,282.561,28.408,256.405,484.419,228.01,456.023,684.02
pro,ste,2,155938,pro_ste_run2_155938,NP,5,3,thing,4000,1,777,1,1,326689,335487,336264,40272,18,286.417,295.215,295.992,28.408,256.405,484.419,228.01,456.023,684.02
pro,ste,2,155938,pro_ste_run2_155938,NN,5,2,kids,4000,1,837,2,2,341087,349885,350722,40272,19,300.815,309.613,310.45,28.408,256.405,484.419,228.01,456.023,684.02
pro,ste,2,155938,pro_ste_run2_155938,RN,2,1,onion,1600,1,655,2,2,355484,364283,364938,40272,20,315.212,324.011,324.666,28.408,256.405,484.419,228.01,456.023,684.02
pro,ste,2,155938,pro_ste_run2_155938,NP,5,3,grill,2800,1,711,1,1,367482,376281,376992,40272,21,327.21,336.009,336.72,28.408,256.405,484.419,228.01,456.023,684.02
pro,ste,2,155938,pro_ste_run2_155938,NN,4,1,barber,1600,1,1805,2,2,380680,389479,391284,40272,22,340.408,349.207,351.012,28.408,256.405,484.419,228.01,456.023,684.02
pro,ste,2,155938,pro_ste_run2_155938,NN,2,2,flaw,4000,1,814,2,2,392678,401477,402291,40272,23,352.406,361.205,362.019,28.408,256.405,484.419,228.01,456.023,684.02
pro,ste,2,155938,pro_ste_run2_155938,NN,3,1,grain,1600,0,0,,2,407076,415875,0,40272,24,366.804,375.603,-40.272,28.408,256.405,484.419,228.01,456.023,684.02
pro,ste,2,155938,pro_ste_run2_155938,NP,2,2,nerve,2800,1,1203,1,1,419074,427873,429076,40272,25,378.802,387.601,388.804,28.408,256.405,484.419,228.01,456.023,684.02
pro,ste,2,155938,pro_ste_run2_155938,NP,5,3,class,2800,1,753,1,1,432289,441087,441840,40272,26,392.017,400.815,401.568,28.408,256.405,484.419,228.01,456.023,684.02
pro,ste,2,155938,pro_ste_run2_155938,NN,2,2,tally,4000,1,720,2,2,445487,454285,455005,40272,27,405.215,414.013,414.733,28.408,256.405,484.419,228.01,456.023,684.02
pro,ste,2,155938,pro_ste_run2_155938,NP,2,2,photo,2800,1,534,1,1,459884,468683,469217,40272,28,419.612,428.411,428.945,28.408,256.405,484.419,228.01,456.023,684.02
pro,ste,2,155938,pro_ste_run2_155938,NN,5,2,zebra,1600,1,719,2,2,473082,481881,482600,40272,29,432.81,441.609,442.328,28.408,256.405,484.419,228.01,456.023,684.02
pro,ste,2,155938,pro_ste_run2_155938,RN,5,1,pupil,1600,1,1764,2,2,485080,493879,495643,40272,30,444.808,453.607,455.371,28.408,256.405,484.419,228.01,456.023,684.02
pro,ste,2,155938,pro_ste_run2_155938,NN,2,1,list,2800,0,0,,2,527074,535889,0,40272,31,486.802,495.617,-40.272,28.408,256.405,484.419,228.01,456.023,684.02
pro,ste,2,155938,pro_ste_run2_155938,NP,3,1,tissue,4000,1,902,1,1,540288,549087,549989,40272,32,500.016,508.815,509.717,28.408,256.405,484.419,228.01,456.023,684.02
pro,ste,2,155938,pro_ste_run2_155938,NP,2,3,point,2800,1,856,1,1,554686,563485,564341,40272,33,514.414,523.213,524.069,28.408,256.405,484.419,228.01,456.023,684.02
pro,ste,2,155938,pro_ste_run2_155938,NN,5,2,output,2800,1,763,2,2,567884,576682,577445,40272,34,527.612,536.41,537.173,28.408,256.405,484.419,228.01,456.023,684.02
pro,ste,2,155938,pro_ste_run2_155938,NP,5,3,finger,1600,1,1178,1,1,581082,589880,591058,40272,35,540.81,549.608,550.786,28.408,256.405,484.419,228.01,456.023,684.02
pro,ste,2,155938,pro_ste_run2_155938,NP,2,3,grace,4000,1,785,1,1,593080,601878,602663,40272,36,552.808,561.606,562.391,28.408,256.405,484.419,228.01,456.023,684.02
pro,ste,2,155938,pro_ste_run2_155938,NN,3,2,filter,2800,1,797,2,2,607478,616276,617073,40272,37,567.206,576.004,576.801,28.408,256.405,484.419,228.01,456.023,684.02
pro,ste,2,155938,pro_ste_run2_155938,NP,5,3,click,4000,1,1397,1,1,620675,629474,630871,40272,38,580.403,589.202,590.599,28.408,256.405,484.419,228.01,456.023,684.02
pro,ste,2,155938,pro_ste_run2_155938,NN,3,2,cows,1600,1,692,2,2,635073,643888,644580,40272,39,594.801,603.616,604.308,28.408,256.405,484.419,228.01,456.023,684.02
pro,ste,2,155938,pro_ste_run2_155938,RN,5,1,need,2800,1,1371,2,2,647088,655886,657257,40272,40,606.816,615.614,616.985,28.408,256.405,484.419,228.01,456.023,684.02
pro,ste,2,155938,pro_ste_run2_155938,NP,5,3,void,1600,0,1307,2,1,660286,669084,670391,40272,41,620.014,628.812,630.119,28.408,256.405,484.419,228.01,456.023,684.02
pro,ste,2,155938,pro_ste_run2_155938,NP,2,3,talent,4000,0,1630,2,1,672284,681082,682712,40272,42,632.012,640.81,642.44,28.408,256.405,484.419,228.01,456.023,684.02
pro,ste,2,155938,pro_ste_run2_155938,NP,4,1,clown,1600,1,1133,1,1,686682,695480,696613,40272,43,646.41,655.208,656.341,28.408,256.405,484.419,228.01,456.023,684.02
pro,ste,2,155938,pro_ste_run2_155938,NN,5,2,signal,1600,1,644,2,2,698680,707478,708122,40272,44,658.408,667.206,667.85,28.408,256.405,484.419,228.01,456.023,684.02
pro,ste,2,155938,pro_ste_run2_155938,NN,4,1,grip,4000,1,767,2,2,710678,719476,720243,40272,45,670.406,679.204,679.971,28.408,256.405,484.419,228.01,456.023,684.02
rea,ste,1,155938,rea_ste_run1_155938,NP,8,2,brow,1600,1,1342,1,1,121191,129989,131331,90383,1,30.808,39.606,40.948,28.408,256.422,484.419,228.026,456.023,684.02
rea,ste,1,155938,rea_ste_run1_155938,RN,5,2,jets,2800,1,1479,2,2,133189,142004,143483,90383,2,42.806,51.621,53.1,28.408,256.422,484.419,228.026,456.023,684.02
rea,ste,1,155938,rea_ste_run1_155938,NP,5,3,touch,2800,1,1322,1,1,146403,155202,156524,90383,3,56.02,64.819,66.141,28.408,256.422,484.419,228.026,456.023,684.02
rea,ste,1,155938,rea_ste_run1_155938,NP,5,3,pound,1600,0,1634,2,1,159601,168400,170034,90383,4,69.218,78.017,79.651,28.408,256.422,484.419,228.026,456.023,684.02
rea,ste,1,155938,rea_ste_run1_155938,RN,7,1,rivals,4000,1,1330,2,2,171599,180398,181728,90383,5,81.216,90.015,91.345,28.408,256.422,484.419,228.026,456.023,684.02
rea,ste,1,155938,rea_ste_run1_155938,NP,6,1,name,2800,0,1093,2,1,185997,194796,195889,90383,6,95.614,104.413,105.506,28.408,256.422,484.419,228.026,456.023,684.02
rea,ste,1,155938,rea_ste_run1_155938,NP,7,2,world,4000,1,996,1,1,199195,207994,208990,90383,7,108.812,117.611,118.607,28.408,256.422,484.419,228.026,456.023,684.02
rea,ste,1,155938,rea_ste_run1_155938,RN,8,2,marker,1600,1,927,2,2,213593,222391,223318,90383,8,123.21,132.008,132.935,28.408,256.422,484.419,228.026,456.023,684.02
rea,ste,1,155938,rea_ste_run1_155938,NP,5,3,wife,4000,1,1161,1,1,225591,234389,235550,90383,9,135.208,144.006,145.167,28.408,256.422,484.419,228.026,456.023,684.02
rea,ste,1,155938,rea_ste_run1_155938,RN,5,2,paper,4000,1,909,2,2,239988,248804,249713,90383,10,149.605,158.421,159.33,28.408,256.422,484.419,228.026,456.023,684.02
rea,ste,1,155938,rea_ste_run1_155938,NN,5,1,chin,2800,1,896,2,2,254403,263201,264097,90383,11,164.02,172.818,173.714,28.408,256.422,484.419,228.026,456.023,684.02
rea,ste,1,155938,rea_ste_run1_155938,NP,7,2,grill,1600,0,0,,1,267601,276399,0,90383,12,177.218,186.016,-90.383,28.408,256.422,484.419,228.026,456.023,684.02
rea,ste,1,155938,rea_ste_run1_155938,RN,8,2,rhyme,4000,1,1025,2,2,279599,288397,289422,90383,13,189.216,198.014,199.039,28.408,256.422,484.419,228.026,456.023,684.02
rea,ste,1,155938,rea_ste_run1_155938,NP,8,2,goods,2800,1,1088,1,1,293997,302795,303883,90383,14,203.614,212.412,213.5,28.408,256.422,484.419,228.026,456.023,684.02
rea,ste,1,155938,rea_ste_run1_155938,RN,6,1,reign,1600,1,690,2,2,307194,315993,316683,90383,15,216.811,225.61,226.3,28.408,256.422,484.419,228.026,456.023,684.02
rea,ste,1,155938,rea_ste_run1_155938,NP,5,3,harbor,4000,1,837,1,1,349188,358003,358840,90383,16,258.805,267.62,268.457,28.408,256.422,484.419,228.026,456.023,684.02
rea,ste,1,155938,rea_ste_run1_155938,RN,7,1,boat,2800,1,1001,2,2,363602,372401,373402,90383,17,273.219,282.018,283.019,28.408,256.422,484.419,228.026,456.023,684.02
rea,ste,1,155938,rea_ste_run1_155938,RN,8,2,hour,2800,0,0,,2,376800,385599,0,90383,18,286.417,295.216,-90.383,28.408,256.422,484.419,228.026,456.023,684.02
rea,ste,1,155938,rea_ste_run1_155938,NP,8,3,tongue,4000,1,941,1,1,389998,398796,399737,90383,19,299.615,308.413,309.354,28.408,256.422,484.419,228.026,456.023,684.02
rea,ste,1,155938,rea_ste_run1_155938,RN,6,1,beam,1600,1,764,2,2,404396,413194,413958,90383,20,314.013,322.811,323.575,28.408,256.422,484.419,228.026,456.023,684.02
rea,ste,1,155938,rea_ste_run1_155938,NN,5,1,ruler,2800,1,835,2,2,416394,425192,426027,90383,21,326.011,334.809,335.644,28.408,256.422,484.419,228.026,456.023,684.02
rea,ste,1,155938,rea_ste_run1_155938,NP,5,3,dryer,1600,0,1753,2,1,429592,438390,440143,90383,22,339.209,348.007,349.76,28.408,256.422,484.419,228.026,456.023,684.02
rea,ste,1,155938,rea_ste_run1_155938,RN,8,2,jazz,2800,1,999,2,2,441590,450388,451387,90383,23,351.207,360.005,361.004,28.408,256.422,484.419,228.026,456.023,684.02
rea,ste,1,155938,rea_ste_run1_155938,RN,5,2,blaze,1600,1,763,2,2,454788,463603,464366,90383,24,364.405,373.22,373.983,28.408,256.422,484.419,228.026,456.023,684.02
rea,ste,1,155938,rea_ste_run1_155938,NP,8,3,visit,4000,0,952,2,1,466802,475601,476553,90383,25,376.419,385.218,386.17,28.408,256.422,484.419,228.026,456.023,684.02
rea,ste,1,155938,rea_ste_run1_155938,RN,5,2,ideals,1600,1,886,2,2,481200,489999,490885,90383,26,390.817,399.616,400.502,28.408,256.422,484.419,228.026,456.023,684.02
rea,ste,1,155938,rea_ste_run1_155938,NP,5,3,plate,4000,1,1739,1,1,493198,501997,503736,90383,27,402.815,411.614,413.353,28.408,256.422,484.419,228.026,456.023,684.02
rea,ste,1,155938,rea_ste_run1_155938,NP,7,2,spark,2800,1,986,1,1,507596,516394,517380,90383,28,417.213,426.011,426.997,28.408,256.422,484.419,228.026,456.023,684.02
rea,ste,1,155938,rea_ste_run1_155938,NP,8,3,males,1600,0,0,,1,520794,529592,0,90383,29,430.411,439.209,-90.383,28.408,256.422,484.419,228.026,456.023,684.02
rea,ste,1,155938,rea_ste_run1_155938,NP,7,2,setup,4000,1,1329,1,1,532792,541590,542919,90383,30,442.409,451.207,452.536,28.408,256.422,484.419,228.026,456.023,684.02
rea,ste,1,155938,rea_ste_run1_155938,NP,5,3,answer,2800,1,877,1,1,577201,586000,586877,90383,31,486.818,495.617,496.494,28.408,256.422,484.419,228.026,456.023,684.02
rea,ste,1,155938,rea_ste_run1_155938,RN,5,2,hawk,1600,0,1389,1,2,590399,599198,600587,90383,32,500.016,508.815,510.204,28.408,256.422,484.419,228.026,456.023,684.02
rea,ste,1,155938,rea_ste_run1_155938,NN,8,1,train,4000,1,1005,2,2,602397,611196,612201,90383,33,512.014,520.813,521.818,28.408,256.422,484.419,228.026,456.023,684.02
rea,ste,1,155938,rea_ste_run1_155938,RN,8,2,poppy,4000,0,1625,1,2,616795,625594,627219,90383,34,526.412,535.211,536.836,28.408,256.422,484.419,228.026,456.023,684.02
rea,ste,1,155938,rea_ste_run1_155938,RN,7,2,wave,4000,1,902,2,2,631193,639991,640893,90383,35,540.81,549.608,550.51,28.408,256.422,484.419,228.026,456.023,684.02
rea,ste,1,155938,rea_ste_run1_155938,RN,8,2,days,1600,1,716,2,2,645591,654389,655105,90383,36,555.208,564.006,564.722,28.408,256.422,484.419,228.026,456.023,684.02
rea,ste,1,155938,rea_ste_run1_155938,RN,7,2,need,1600,1,892,2,2,657589,666404,667296,90383,37,567.206,576.021,576.913,28.408,256.422,484.419,228.026,456.023,684.02
rea,ste,1,155938,rea_ste_run1_155938,NP,5,3,hose,2800,0,0,,1,669603,678402,0,90383,38,579.22,588.019,-90.383,28.408,256.422,484.419,228.026,456.023,684.02
rea,ste,1,155938,rea_ste_run1_155938,RN,5,2,drip,2800,1,1847,2,2,682801,691600,693447,90383,39,592.418,601.217,603.064,28.408,256.422,484.419,228.026,456.023,684.02
rea,ste,1,155938,rea_ste_run1_155938,NN,5,1,finger,1600,1,1319,2,2,695999,704798,706117,90383,40,605.616,614.415,615.734,28.408,256.422,484.419,228.026,456.023,684.02
rea,ste,1,155938,rea_ste_run1_155938,NP,8,2,charge,4000,0,916,2,1,707997,716796,717712,90383,41,617.614,626.413,627.329,28.408,256.422,484.419,228.026,456.023,684.02
rea,ste,1,155938,rea_ste_run1_155938,NP,7,1,drum,2800,1,924,1,1,722395,731194,732118,90383,42,632.012,640.811,641.735,28.408,256.422,484.419,228.026,456.023,684.02
rea,ste,1,155938,rea_ste_run1_155938,NP,5,3,spell,1600,0,1380,2,1,735593,744391,745771,90383,43,645.21,654.008,655.388,28.408,256.422,484.419,228.026,456.023,684.02
rea,ste,1,155938,rea_ste_run1_155938,NP,6,1,people,4000,1,1123,1,1,747591,756390,757513,90383,44,657.208,666.007,667.13,28.408,256.422,484.419,228.026,456.023,684.02
rea,ste,1,155938,rea_ste_run1_155938,NP,8,2,rattle,2800,1,1274,1,1,761989,770804,772078,90383,45,671.606,680.421,681.695,28.408,256.422,484.419,228.026,456.023,684.02
rea,ste,2,155938,rea_ste_run2_155938,NN,5,1,food,4000,1,825,2,2,66058,74857,75682,35246,1,30.812,39.611,40.436,28.413,256.41,484.423,228.031,456.028,684.025
rea,ste,2,155938,rea_ste_run2_155938,NP,8,2,rider,2800,1,1695,1,1,80456,89255,90950,35246,2,45.21,54.009,55.704,28.413,256.41,484.423,228.031,456.028,684.025
rea,ste,2,155938,rea_ste_run2_155938,RN,8,2,slug,2800,0,1173,1,2,93654,102469,103642,35246,3,58.408,67.223,68.396,28.413,256.41,484.423,228.031,456.028,684.025
rea,ste,2,155938,rea_ste_run2_155938,RN,8,2,witch,1600,0,987,1,2,106868,115667,116654,35246,4,71.622,80.421,81.408,28.413,256.41,484.423,228.031,456.028,684.025
rea,ste,2,155938,rea_ste_run2_155938,RN,5,2,stain,4000,1,781,2,2,118866,127665,128446,35246,5,83.62,92.419,93.2,28.413,256.41,484.423,228.031,456.028,684.025
rea,ste,2,155938,rea_ste_run2_155938,NN,7,1,herd,2800,1,846,2,2,133264,142063,142909,35246,6,98.018,106.817,107.663,28.413,256.41,484.423,228.031,456.028,684.025
rea,ste,2,155938,rea_ste_run2_155938,NP,7,1,flag,4000,1,1028,1,1,146462,155261,156289,35246,7,111.216,120.015,121.043,28.413,256.41,484.423,228.031,456.028,684.025
rea,ste,2,155938,rea_ste_run2_155938,RN,6,1,maid,1600,0,0,,2,160860,169658,0,35246,8,125.614,134.412,-35.246,28.413,256.41,484.423,228.031,456.028,684.025
rea,ste,2,155938,rea_ste_run2_155938,NP,6,1,wall,4000,1,732,1,1,172858,181656,182388,35246,9,137.612,146.41,147.142,28.413,256.41,484.423,228.031,456.028,684.025
rea,ste,2,155938,rea_ste_run2_155938,NP,5,3,zipper,2800,1,863,1,1,187256,196054,196917,35246,10,152.01,160.808,161.671,28.413,256.41,484.423,228.031,456.028,684.025
rea,ste,2,155938,rea_ste_run2_155938,RN,5,2,pair,4000,1,768,2,2,200453,209269,210037,35246,11,165.207,174.023,174.791,28.413,256.41,484.423,228.031,456.028,684.025
rea,ste,2,155938,rea_ste_run2_155938,NP,8,2,tree,1600,1,1317,1,1,214868,223666,224983,35246,12,179.622,188.42,189.737,28.413,256.41,484.423,228.031,456.028,684.025
rea,ste,2,155938,rea_ste_run2_155938,NP,5,3,photo,1600,0,0,,1,226866,235665,0,35246,13,191.62,200.419,-35.246,28.413,256.41,484.423,228.031,456.028,684.025
rea,ste,2,155938,rea_ste_run2_155938,NP,5,3,girl,2800,1,753,1,1,238864,247663,248416,35246,14,203.618,212.417,213.17,28.413,256.41,484.423,228.031,456.028,684.025
rea,ste,2,155938,rea_ste_run2_155938,RN,7,1,quart,1600,1,897,2,2,252062,260861,261758,35246,15,216.816,225.615,226.512,28.413,256.41,484.423,228.031,456.028,684.025
rea,ste,2,155938,rea_ste_run2_155938,NN,8,1,rest,2800,1,809,2,2,294055,302854,303663,35246,16,258.809,267.608,268.417,28.413,256.41,484.423,228.031,456.028,684.025
rea,ste,2,155938,rea_ste_run2_155938,NP,7,2,singer,4000,1,749,1,1,307253,316068,316817,35246,17,272.007,280.822,281.571,28.413,256.41,484.423,228.031,456.028,684.025
rea,ste,2,155938,rea_ste_run2_155938,RN,8,2,prince,4000,1,847,2,2,321668,330466,331313,35246,18,286.422,295.22,296.067,28.413,256.41,484.423,228.031,456.028,684.025
rea,ste,2,155938,rea_ste_run2_155938,NP,5,3,pals,1600,1,1004,1,1,336065,344864,345868,35246,19,300.819,309.618,310.622,28.413,256.41,484.423,228.031,456.028,684.025
rea,ste,2,155938,rea_ste_run2_155938,NP,5,3,cotton,1600,1,1361,1,1,348063,356862,358223,35246,20,312.817,321.616,322.977,28.413,256.41,484.423,228.031,456.028,684.025
rea,ste,2,155938,rea_ste_run2_155938,NP,5,3,chest,4000,0,943,2,1,360061,368860,369803,35246,21,324.815,333.614,334.557,28.413,256.41,484.423,228.031,456.028,684.025
rea,ste,2,155938,rea_ste_run2_155938,NP,8,2,dawn,2800,1,888,1,1,374459,383258,384146,35246,22,339.213,348.012,348.9,28.413,256.41,484.423,228.031,456.028,684.025
rea,ste,2,155938,rea_ste_run2_155938,RN,5,2,praise,1600,1,717,2,2,387657,396456,397173,35246,23,352.411,361.21,361.927,28.413,256.41,484.423,228.031,456.028,684.025
rea,ste,2,155938,rea_ste_run2_155938,RN,5,2,walker,1600,1,1038,2,2,399655,408454,409492,35246,24,364.409,373.208,374.246,28.413,256.41,484.423,228.031,456.028,684.025
rea,ste,2,155938,rea_ste_run2_155938,NN,5,1,grass,4000,1,773,2,2,411653,420468,421241,35246,25,376.407,385.222,385.995,28.413,256.41,484.423,228.031,456.028,684.025
rea,ste,2,155938,rea_ste_run2_155938,NP,8,2,charm,1600,1,949,1,1,426068,434866,435815,35246,26,390.822,399.62,400.569,28.413,256.41,484.423,228.031,456.028,684.025
rea,ste,2,155938,rea_ste_run2_155938,RN,8,2,barber,2800,0,0,,2,438066,446864,0,35246,27,402.82,411.618,-35.246,28.413,256.41,484.423,228.031,456.028,684.025
rea,ste,2,155938,rea_ste_run2_155938,RN,6,1,motor,4000,1,657,2,2,451264,460062,460719,35246,28,416.018,424.816,425.473,28.413,256.41,484.423,228.031,456.028,684.025
rea,ste,2,155938,rea_ste_run2_155938,RN,7,1,east,2800,1,849,2,2,465661,474460,475309,35246,29,430.415,439.214,440.063,28.413,256.41,484.423,228.031,456.028,684.025
rea,ste,2,155938,rea_ste_run2_155938,NP,7,2,oats,2800,1,811,1,1,478859,487658,488469,35246,30,443.613,452.412,453.223,28.413,256.41,484.423,228.031,456.028,684.025
rea,ste,2,155938,rea_ste_run2_155938,NP,8,3,slip,2800,1,1021,1,1,522069,530868,531889,35246,31,486.823,495.622,496.643,28.413,256.41,484.423,228.031,456.028,684.025
rea,ste,2,155938,rea_ste_run2_155938,RN,7,2,note,4000,1,743,2,2,535267,544065,544808,35246,32,500.021,508.819,509.562,28.413,256.41,484.423,228.031,456.028,684.025
rea,ste,2,155938,rea_ste_run2_155938,RN,5,2,tile,2800,0,0,,2,549665,558463,0,35246,33,514.419,523.217,-35.246,28.413,256.41,484.423,228.031,456.028,684.025
rea,ste,2,155938,rea_ste_run2_155938,NP,5,3,winner,4000,0,1121,2,1,562862,571661,572782,35246,34,527.616,536.415,537.536,28.413,256.41,484.423,228.031,456.028,684.025
rea,ste,2,155938,rea_ste_run2_155938,NN,5,1,flick,1600,1,663,2,2,577260,586059,586722,35246,35,542.014,550.813,551.476,28.413,256.41,484.423,228.031,456.028,684.025
rea,ste,2,155938,rea_ste_run2_155938,NP,8,3,glove,1600,1,965,1,1,589258,598057,599022,35246,36,554.012,562.811,563.776,28.413,256.41,484.423,228.031,456.028,684.025
rea,ste,2,155938,rea_ste_run2_155938,RN,5,2,list,2800,0,0,,2,601256,610055,0,35246,37,566.01,574.809,-35.246,28.413,256.41,484.423,228.031,456.028,684.025
rea,ste,2,155938,rea_ste_run2_155938,NP,5,3,beach,4000,1,1292,1,1,614454,623253,624545,35246,38,579.208,588.007,589.299,28.413,256.41,484.423,228.031,456.028,684.025
rea,ste,2,155938,rea_ste_run2_155938,NP,5,3,bugs,4000,1,893,1,1,628869,637667,638560,35246,39,593.623,602.421,603.314,28.413,256.41,484.423,228.031,456.028,684.025
rea,ste,2,155938,rea_ste_run2_155938,NP,7,1,suit,1600,0,0,,1,643266,652065,0,35246,40,608.02,616.819,-35.246,28.413,256.41,484.423,228.031,456.028,684.025
rea,ste,2,155938,rea_ste_run2_155938,RN,8,1,dock,1600,1,673,2,2,655264,664063,664736,35246,41,620.018,628.817,629.49,28.413,256.41,484.423,228.031,456.028,684.025
rea,ste,2,155938,rea_ste_run2_155938,RN,6,1,folder,1600,1,782,2,2,667262,676061,676843,35246,42,632.016,640.815,641.597,28.413,256.41,484.423,228.031,456.028,684.025
rea,ste,2,155938,rea_ste_run2_155938,NP,8,3,owner,2800,1,1416,1,1,679261,688059,689475,35246,43,644.015,652.813,654.229,28.413,256.41,484.423,228.031,456.028,684.025
rea,ste,2,155938,rea_ste_run2_155938,NP,6,1,washer,2800,1,1279,1,1,692458,701257,702536,35246,44,657.212,666.011,667.29,28.413,256.41,484.423,228.031,456.028,684.025
rea,ste,2,155938,rea_ste_run2_155938,RN,7,2,void,4000,1,1027,2,2,705656,714455,715482,35246,45,670.41,679.209,680.236,28.413,256.41,484.423,228.031,456.028,684.025
bas,ste,1,178647,bas_ste_run1_178647,NP,5,3,syrup,4000,1,1351,1,1,128423,137222,138573,97609,1,30.814,39.613,40.964,28.414,256.415,484.415,228.029,456.03,684.031
bas,ste,1,178647,bas_ste_run1_178647,NN,8,2,scale,2800,0,949,1,2,142822,151621,152570,97609,2,45.213,54.012,54.961,28.414,256.415,484.415,228.029,456.03,684.031
bas,ste,1,178647,bas_ste_run1_178647,NN,8,2,doll,2800,1,1438,2,2,156021,164821,166259,97609,3,58.412,67.212,68.65,28.414,256.415,484.415,228.029,456.03,684.031
bas,ste,1,178647,bas_ste_run1_178647,NP,5,3,threat,4000,0,1672,2,1,169221,178020,179692,97609,4,71.612,80.411,82.083,28.414,256.415,484.415,228.029,456.03,684.031
bas,ste,1,178647,bas_ste_run1_178647,NN,6,1,parrot,4000,1,1458,2,2,183620,192419,193877,97609,5,86.011,94.81,96.268,28.414,256.415,484.415,228.029,456.03,684.031
bas,ste,1,178647,bas_ste_run1_178647,NP,8,2,chance,1600,1,1274,1,1,198019,206832,208106,97609,6,100.41,109.223,110.497,28.414,256.415,484.415,228.029,456.03,684.031
bas,ste,1,178647,bas_ste_run1_178647,NN,5,2,blur,1600,1,1342,2,2,210032,218831,220173,97609,7,112.423,121.222,122.564,28.414,256.415,484.415,228.029,456.03,684.031
bas,ste,1,178647,bas_ste_run1_178647,NP,7,2,rash,4000,0,0,,1,222031,230830,0,97609,8,124.422,133.221,-97.609,28.414,256.415,484.415,228.029,456.03,684.031
bas,ste,1,178647,bas_ste_run1_178647,NN,5,2,tube,1600,1,1211,2,2,236430,245230,246441,97609,9,138.821,147.621,148.832,28.414,256.415,484.415,228.029,456.03,684.031
bas,ste,1,178647,bas_ste_run1_178647,NP,5,3,share,2800,1,1320,1,1,248429,257229,258549,97609,10,150.82,159.62,160.94,28.414,256.415,484.415,228.029,456.03,684.031
bas,ste,1,178647,bas_ste_run1_178647,NP,7,2,wealth,2800,1,1413,1,1,261629,270428,271841,97609,11,164.02,172.819,174.232,28.414,256.415,484.415,228.029,456.03,684.031
bas,ste,1,178647,bas_ste_run1_178647,NP,8,2,bush,4000,1,1128,1,1,274828,283627,284755,97609,12,177.219,186.018,187.146,28.414,256.415,484.415,228.029,456.03,684.031
bas,ste,1,178647,bas_ste_run1_178647,NN,7,1,straw,1600,1,1689,2,2,289227,298027,299716,97609,13,191.618,200.418,202.107,28.414,256.415,484.415,228.029,456.03,684.031
bas,ste,1,178647,bas_ste_run1_178647,NP,6,1,frost,1600,1,1177,1,1,301227,310026,311203,97609,14,203.618,212.417,213.594,28.414,256.415,484.415,228.029,456.03,684.031
bas,ste,1,178647,bas_ste_run1_178647,RN,5,1,quart,2800,0,627,1,2,313226,322025,322652,97609,15,215.617,224.416,225.043,28.414,256.415,484.415,228.029,456.03,684.031
bas,ste,1,178647,bas_ste_run1_178647,NN,6,1,taxi,1600,1,1279,2,2,356423,365223,366502,97609,16,258.814,267.614,268.893,28.414,256.415,484.415,228.029,456.03,684.031
bas,ste,1,178647,bas_ste_run1_178647,NN,8,2,liar,4000,1,1150,2,2,368423,377222,378372,97609,17,270.814,279.613,280.763,28.414,256.415,484.415,228.029,456.03,684.031
bas,ste,1,178647,bas_ste_run1_178647,NP,7,2,need,2800,1,1181,1,1,382822,391621,392802,97609,18,285.213,294.012,295.193,28.414,256.415,484.415,228.029,456.03,684.031
bas,ste,1,178647,bas_ste_run1_178647,NP,7,2,bean,1600,1,980,1,1,396021,404821,405801,97609,19,298.412,307.212,308.192,28.414,256.415,484.415,228.029,456.03,684.031
bas,ste,1,178647,bas_ste_run1_178647,NP,8,3,bees,2800,1,577,1,1,408021,416820,417397,97609,20,310.412,319.211,319.788,28.414,256.415,484.415,228.029,456.03,684.031
bas,ste,1,178647,bas_ste_run1_178647,NP,5,3,visit,2800,1,1153,1,1,421220,430019,431172,97609,21,323.611,332.41,333.563,28.414,256.415,484.415,228.029,456.03,684.031
bas,ste,1,178647,bas_ste_run1_178647,NN,7,1,logic,1600,1,1561,2,2,434419,443232,444793,97609,22,336.81,345.623,347.184,28.414,256.415,484.415,228.029,456.03,684.031
bas,ste,1,178647,bas_ste_run1_178647,NP,5,3,people,2800,1,1230,1,1,446432,455231,456461,97609,23,348.823,357.622,358.852,28.414,256.415,484.415,228.029,456.03,684.031
bas,ste,1,178647,bas_ste_run1_178647,NN,8,2,heater,4000,1,1882,2,2,459631,468431,470313,97609,24,362.022,370.822,372.704,28.414,256.415,484.415,228.029,456.03,684.031
bas,ste,1,178647,bas_ste_run1_178647,RN,5,1,noise,4000,1,1240,2,2,474030,482830,484070,97609,25,376.421,385.221,386.461,28.414,256.415,484.415,228.029,456.03,684.031
bas,ste,1,178647,bas_ste_run1_178647,NN,5,2,pole,2800,0,772,1,2,488429,497229,498001,97609,26,390.82,399.62,400.392,28.414,256.415,484.415,228.029,456.03,684.031
bas,ste,1,178647,bas_ste_run1_178647,NP,8,3,city,4000,0,1308,2,1,501629,510428,511736,97609,27,404.02,412.819,414.127,28.414,256.415,484.415,228.029,456.03,684.031
bas,ste,1,178647,bas_ste_run1_178647,NP,8,3,carpet,4000,1,1389,1,1,516028,524827,526216,97609,28,418.419,427.218,428.607,28.414,256.415,484.415,228.029,456.03,684.031
bas,ste,1,178647,bas_ste_run1_178647,NP,5,3,tags,1600,1,447,1,1,530427,539227,539674,97609,29,432.818,441.618,442.065,28.414,256.415,484.415,228.029,456.03,684.031
bas,ste,1,178647,bas_ste_run1_178647,NN,5,2,greed,1600,1,1133,2,2,542426,551226,552359,97609,30,444.817,453.617,454.75,28.414,256.415,484.415,228.029,456.03,684.031
bas,ste,1,178647,bas_ste_run1_178647,NN,5,2,pans,1600,1,1404,2,2,584424,593224,594628,97609,31,486.815,495.615,497.019,28.414,256.415,484.415,228.029,456.03,684.031
bas,ste,1,178647,bas_ste_run1_178647,NP,5,3,muscle,1600,1,1339,1,1,596423,605223,606562,97609,32,498.814,507.614,508.953,28.414,256.415,484.415,228.029,456.03,684.031
bas,ste,1,178647,bas_ste_run1_178647,NP,8,2,bugs,1600,1,1105,1,1,608423,617222,618327,97609,33,510.814,519.613,520.718,28.414,256.415,484.415,228.029,456.03,684.031
bas,ste,1,178647,bas_ste_run1_178647,RN,5,1,fusion,2800,1,1925,2,2,620422,629222,631147,97609,34,522.813,531.613,533.538,28.414,256.415,484.415,228.029,456.03,684.031
bas,ste,1,178647,bas_ste_run1_178647,NN,8,2,shell,4000,1,927,2,2,633621,642421,643348,97609,35,536.012,544.812,545.739,28.414,256.415,484.415,228.029,456.03,684.031
bas,ste,1,178647,bas_ste_run1_178647,NP,7,1,clue,2800,0,1364,2,1,648021,656820,658184,97609,36,550.412,559.211,560.575,28.414,256.415,484.415,228.029,456.03,684.031
bas,ste,1,178647,bas_ste_run1_178647,NP,8,2,wife,4000,0,1356,2,1,661220,670019,671375,97609,37,563.611,572.41,573.766,28.414,256.415,484.415,228.029,456.03,684.031
bas,ste,1,178647,bas_ste_run1_178647,NN,5,2,gift,4000,1,1419,2,2,675619,684432,685851,97609,38,578.01,586.823,588.242,28.414,256.415,484.415,228.029,456.03,684.031
bas,ste,1,178647,bas_ste_run1_178647,NP,6,1,food,2800,1,1104,1,1,690032,698831,699935,97609,39,592.423,601.222,602.326,28.414,256.415,484.415,228.029,456.03,684.031
bas,ste,1,178647,bas_ste_run1_178647,RN,8,1,ground,2800,0,1858,1,2,703231,712030,713888,97609,40,605.622,614.421,616.279,28.414,256.415,484.415,228.029,456.03,684.031
bas,ste,1,178647,bas_ste_run1_178647,NP,5,3,marker,4000,1,1504,1,1,716430,725230,726734,97609,41,618.821,627.621,629.125,28.414,256.415,484.415,228.029,456.03,684.031
bas,ste,1,178647,bas_ste_run1_178647,NN,8,2,signal,1600,0,0,,2,730829,739629,0,97609,42,633.22,642.02,-97.609,28.414,256.415,484.415,228.029,456.03,684.031
bas,ste,1,178647,bas_ste_run1_178647,NP,5,3,curve,1600,1,1425,1,1,742829,751628,753053,97609,43,645.22,654.019,655.444,28.414,256.415,484.415,228.029,456.03,684.031
bas,ste,1,178647,bas_ste_run1_178647,NN,7,2,pledge,4000,1,923,2,2,754828,763627,764550,97609,44,657.219,666.018,666.941,28.414,256.415,484.415,228.029,456.03,684.031
bas,ste,1,178647,bas_ste_run1_178647,NN,7,2,berry,2800,0,688,1,2,769227,778027,778715,97609,45,671.618,680.418,681.106,28.414,256.415,484.415,228.029,456.03,684.031
bas,ste,2,178647,bas_ste_run2_178647,NP,5,3,north,4000,1,1533,1,1,73260,82060,83593,42443,1,30.817,39.617,41.15,28.418,256.418,484.419,228.02,456.02,684.021
bas,ste,2,178647,bas_ste_run2_178647,NP,5,3,ransom,4000,1,1287,1,1,87660,96459,97746,42443,2,45.217,54.016,55.303,28.418,256.418,484.419,228.02,456.02,684.021
bas,ste,2,178647,bas_ste_run2_178647,NN,5,2,chin,2800,0,0,,2,102059,110858,0,42443,3,59.616,68.415,-42.443,28.418,256.418,484.419,228.02,456.02,684.021
bas,ste,2,178647,bas_ste_run2_178647,NN,6,1,whale,2800,1,1636,2,2,115258,124058,125694,42443,4,72.815,81.615,83.251,28.418,256.418,484.419,228.02,456.02,684.021
bas,ste,2,178647,bas_ste_run2_178647,NN,8,2,cotton,1600,1,1207,2,2,128457,137257,138464,42443,5,86.014,94.814,96.021,28.418,256.418,484.419,228.02,456.02,684.021
bas,ste,2,178647,bas_ste_run2_178647,NP,5,3,wheel,4000,1,1316,1,1,140457,149256,150572,42443,6,98.014,106.813,108.129,28.418,256.418,484.419,228.02,456.02,684.021
bas,ste,2,178647,bas_ste_run2_178647,RN,5,1,cabin,4000,1,968,2,2,154856,163655,164623,42443,7,112.413,121.212,122.18,28.418,256.418,484.419,228.02,456.02,684.021
bas,ste,2,178647,bas_ste_run2_178647,NN,5,2,hatch,1600,1,998,2,2,169255,178055,179053,42443,8,126.812,135.612,136.61,28.418,256.418,484.419,228.02,456.02,684.021
bas,ste,2,178647,bas_ste_run2_178647,NN,7,1,flame,4000,1,1257,2,2,181254,190054,191311,42443,9,138.811,147.611,148.868,28.418,256.418,484.419,228.02,456.02,684.021
bas,ste,2,178647,bas_ste_run2_178647,NP,6,1,dollar,2800,0,0,,1,195654,204453,0,42443,10,153.211,162.01,-42.443,28.418,256.418,484.419,228.02,456.02,684.021
bas,ste,2,178647,bas_ste_run2_178647,NP,8,2,exam,1600,0,880,2,1,208853,217666,218546,42443,11,166.41,175.223,176.103,28.418,256.418,484.419,228.02,456.02,684.021
bas,ste,2,178647,bas_ste_run2_178647,NN,8,2,lesson,2800,1,1560,2,2,220866,229665,231225,42443,12,178.423,187.222,188.782,28.418,256.418,484.419,228.02,456.02,684.021
bas,ste,2,178647,bas_ste_run2_178647,NP,7,1,teeth,2800,1,1312,1,1,234065,242864,244176,42443,13,191.622,200.421,201.733,28.418,256.418,484.419,228.02,456.02,684.021
bas,ste,2,178647,bas_ste_run2_178647,NP,8,2,kids,1600,0,1473,2,1,247264,256064,257537,42443,14,204.821,213.621,215.094,28.418,256.418,484.419,228.02,456.02,684.021
bas,ste,2,178647,bas_ste_run2_178647,RN,7,1,jars,1600,0,0,,2,259263,268063,0,42443,15,216.82,225.62,-42.443,28.418,256.418,484.419,228.02,456.02,684.021
bas,ste,2,178647,bas_ste_run2_178647,NP,5,3,harp,4000,1,1220,1,1,301261,310061,311281,42443,16,258.818,267.618,268.838,28.418,256.418,484.419,228.02,456.02,684.021
bas,ste,2,178647,bas_ste_run2_178647,NN,8,2,sled,1600,1,1637,2,2,315660,324460,326097,42443,17,273.217,282.017,283.654,28.418,256.418,484.419,228.02,456.02,684.021
bas,ste,2,178647,bas_ste_run2_178647,RN,8,1,house,2800,1,1433,2,2,327660,336459,337892,42443,18,285.217,294.016,295.449,28.418,256.418,484.419,228.02,456.02,684.021
bas,ste,2,178647,bas_ste_run2_178647,NP,5,3,store,1600,0,1659,2,1,340859,349658,351317,42443,19,298.416,307.215,308.874,28.418,256.418,484.419,228.02,456.02,684.021
