session,task,run,subj,name,trial.type,iti,cue,probe,target.color,location,cue.cresp,target.cresp,cue.rt,cue.acc,cue.resp,target.rt,target.acc,resp,trialacc,time.cue.onset.abs,time.target.onset.abs,time.target.rt.abs,time.cue.rt.abs,time.scan.start,trial.num,acc,time.cue.onset,time.cue.rt,time.target.onset,time.target.rt,time.block1.on,time.block2.on,time.block3.on,time.block1.off,time.block2.off,time.block3.off
bas,axc,1,130518,bas_axc_run1_130518,AX,1600,A,X,white,center,1,2,883,1,1,487,1,2,1,176056,180855,181342,176939,145441,1,1,30.615,31.498,35.414,35.901,28.432,260.028,491.624,231.632,463.229,694.825
bas,axc,1,130518,bas_axc_run1_130518,AX,2800,A,X,white,center,1,2,565,1,1,403,1,2,1,183271,188070,188473,183836,145441,2,1,37.83,38.395,42.629,43.032,28.432,260.028,491.624,231.632,463.229,694.825
bas,axc,1,130518,bas_axc_run1_130518,AX,1600,A,X,white,center,1,2,348,1,1,287,1,2,1,191670,196469,196756,192018,145441,3,1,46.229,46.577,51.028,51.315,28.432,260.028,491.624,231.632,463.229,694.825
bas,axc,1,130518,bas_axc_run1_130518,BY,2800,T,M,white,center,1,1,561,1,1,352,1,1,1,198869,203668,204020,199430,145441,4,1,53.428,53.989,58.227,58.579,28.432,260.028,491.624,231.632,463.229,694.825
bas,axc,1,130518,bas_axc_run1_130518,AX,4000,A,X,white,center,1,2,489,1,1,328,1,2,1,207267,212066,212394,207756,145441,5,1,61.826,62.315,66.625,66.953,28.432,260.028,491.624,231.632,463.229,694.825
bas,axc,1,130518,bas_axc_run1_130518,BY,4000,N,U,white,center,1,1,471,1,1,655,1,1,1,216866,221665,222320,217337,145441,6,1,71.425,71.896,76.224,76.879,28.432,260.028,491.624,231.632,463.229,694.825
bas,axc,1,130518,bas_axc_run1_130518,Bng,1600,T,9,white,center,1,,509,1,1,0,1,,1,226464,231263,0,226973,145441,7,1,81.023,81.532,85.822,-145.441,28.432,260.028,491.624,231.632,463.229,694.825
bas,axc,1,130518,bas_axc_run1_130518,BY,2800,C,D,white,center,1,1,372,1,1,514,1,1,1,233663,238462,238976,234035,145441,8,1,88.222,88.594,93.021,93.535,28.432,260.028,491.624,231.632,463.229,694.825
bas,axc,1,130518,bas_axc_run1_130518,BX,4000,F,X,white,center,1,1,404,1,1,584,1,1,1,242062,246861,247445,242466,145441,9,1,96.621,97.025,101.42,102.004,28.432,260.028,491.624,231.632,463.229,694.825
bas,axc,1,130518,bas_axc_run1_130518,BY,2800,F,M,white,center,1,1,447,1,1,418,1,1,1,251660,256459,256877,252107,145441,10,1,106.219,106.666,111.018,111.436,28.432,260.028,491.624,231.632,463.229,694.825
bas,axc,1,130518,bas_axc_run1_130518,AX,1600,A,X,white,center,1,2,422,1,1,383,1,2,1,260059,264858,265241,260481,145441,11,1,114.618,115.04,119.417,119.8,28.432,260.028,491.624,231.632,463.229,694.825
bas,axc,1,130518,bas_axc_run1_130518,AY,4000,A,H,white,center,1,1,364,1,1,430,1,1,1,267258,272057,272487,267622,145441,12,1,121.817,122.181,126.616,127.046,28.432,260.028,491.624,231.632,463.229,694.825
bas,axc,1,130518,bas_axc_run1_130518,AX,1600,A,X,white,center,1,2,298,1,1,395,1,2,1,276856,281655,282050,277154,145441,13,1,131.415,131.713,136.214,136.609,28.432,260.028,491.624,231.632,463.229,694.825
bas,axc,1,130518,bas_axc_run1_130518,BY,1600,C,M,white,center,1,1,400,1,1,493,1,1,1,284055,288871,289364,284455,145441,14,1,138.614,139.014,143.43,143.923,28.432,260.028,491.624,231.632,463.229,694.825
bas,axc,1,130518,bas_axc_run1_130518,Ang,2800,A,7,white,center,1,,309,1,1,0,1,,1,291271,296070,0,291580,145441,15,1,145.83,146.139,150.629,-145.441,28.432,260.028,491.624,231.632,463.229,694.825
bas,axc,1,130518,bas_axc_run1_130518,AX,2800,A,X,white,center,1,2,371,1,1,334,1,2,1,299669,304468,304802,300040,145441,16,1,154.228,154.599,159.027,159.361,28.432,260.028,491.624,231.632,463.229,694.825
bas,axc,1,130518,bas_axc_run1_130518,AX,2800,A,X,white,center,1,2,424,1,1,376,1,2,1,308068,312867,313243,308492,145441,17,1,162.627,163.051,167.426,167.802,28.432,260.028,491.624,231.632,463.229,694.825
bas,axc,1,130518,bas_axc_run1_130518,Bng,1600,N,3,white,center,1,,508,1,1,0,1,,1,316466,321266,0,316974,145441,18,1,171.025,171.533,175.825,-145.441,28.432,260.028,491.624,231.632,463.229,694.825
bas,axc,1,130518,bas_axc_run1_130518,BY,1600,T,N,white,center,1,1,614,1,1,406,1,1,1,323665,328465,328871,324279,145441,19,1,178.224,178.838,183.024,183.43,28.432,260.028,491.624,231.632,463.229,694.825
bas,axc,1,130518,bas_axc_run1_130518,BY,4000,H,T,white,center,1,1,367,1,1,342,1,1,1,330864,335663,336005,331231,145441,20,1,185.423,185.79,190.222,190.564,28.432,260.028,491.624,231.632,463.229,694.825
bas,axc,1,130518,bas_axc_run1_130518,AY,4000,A,T,white,center,1,1,362,1,1,534,1,1,1,340463,345262,345796,340825,145441,21,1,195.022,195.384,199.821,200.355,28.432,260.028,491.624,231.632,463.229,694.825
bas,axc,1,130518,bas_axc_run1_130518,BX,2800,C,X,white,center,1,1,385,1,1,402,1,1,1,350061,354860,355262,350446,145441,22,1,204.62,205.005,209.419,209.821,28.432,260.028,491.624,231.632,463.229,694.825
bas,axc,1,130518,bas_axc_run1_130518,BY,4000,N,P,white,center,1,1,537,1,1,436,1,1,1,358460,363259,363695,358997,145441,23,1,213.019,213.556,217.818,218.254,28.432,260.028,491.624,231.632,463.229,694.825
bas,axc,1,130518,bas_axc_run1_130518,Ang,4000,A,5,white,center,1,,489,1,1,0,1,,1,368058,372857,0,368547,145441,24,1,222.617,223.106,227.416,-145.441,28.432,260.028,491.624,231.632,463.229,694.825
bas,axc,1,130518,bas_axc_run1_130518,Ang,2800,A,9,white,center,1,,469,1,1,0,1,,1,407669,412468,0,408138,145441,25,1,262.228,262.697,267.027,-145.441,28.432,260.028,491.624,231.632,463.229,694.825
bas,axc,1,130518,bas_axc_run1_130518,BX,2800,M,X,white,center,1,1,500,1,1,414,1,1,1,416067,420866,421280,416567,145441,26,1,270.626,271.126,275.425,275.839,28.432,260.028,491.624,231.632,463.229,694.825
bas,axc,1,130518,bas_axc_run1_130518,Ang,1600,A,1,white,center,1,,501,1,1,0,1,,1,424466,429265,0,424967,145441,27,1,279.025,279.526,283.824,-145.441,28.432,260.028,491.624,231.632,463.229,694.825
bas,axc,1,130518,bas_axc_run1_130518,BY,1600,D,T,white,center,1,1,400,1,1,401,1,1,1,431665,436464,436865,432065,145441,28,1,286.224,286.624,291.023,291.424,28.432,260.028,491.624,231.632,463.229,694.825
bas,axc,1,130518,bas_axc_run1_130518,AX,1600,A,X,white,center,1,2,421,1,1,421,1,2,1,438864,443663,444084,439285,145441,29,1,293.423,293.844,298.222,298.643,28.432,260.028,491.624,231.632,463.229,694.825
bas,axc,1,130518,bas_axc_run1_130518,BY,4000,M,P,white,center,1,1,427,1,1,460,1,1,1,446062,450862,451322,446489,145441,30,1,300.621,301.048,305.421,305.881,28.432,260.028,491.624,231.632,463.229,694.825
bas,axc,1,130518,bas_axc_run1_130518,AX,4000,A,X,white,center,1,2,517,1,1,491,1,2,1,455661,460460,460951,456178,145441,31,1,310.22,310.737,315.019,315.51,28.432,260.028,491.624,231.632,463.229,694.825
bas,axc,1,130518,bas_axc_run1_130518,AX,4000,A,X,white,center,1,2,349,1,1,331,1,2,1,465259,470059,470390,465608,145441,32,1,319.818,320.167,324.618,324.949,28.432,260.028,491.624,231.632,463.229,694.825
bas,axc,1,130518,bas_axc_run1_130518,AY,2800,A,D,white,center,1,1,397,1,1,698,1,1,1,474858,479657,480355,475255,145441,33,1,329.417,329.814,334.216,334.914,28.432,260.028,491.624,231.632,463.229,694.825
bas,axc,1,130518,bas_axc_run1_130518,BY,2800,D,N,white,center,1,1,684,1,1,491,1,1,1,483257,488056,488547,483941,145441,34,1,337.816,338.5,342.615,343.106,28.432,260.028,491.624,231.632,463.229,694.825
bas,axc,1,130518,bas_axc_run1_130518,AY,4000,A,N,white,center,1,1,709,1,1,642,1,1,1,491655,496471,497113,492364,145441,35,1,346.214,346.923,351.03,351.672,28.432,260.028,491.624,231.632,463.229,694.825
bas,axc,1,130518,bas_axc_run1_130518,BX,1600,U,X,white,center,1,1,724,1,1,728,1,1,1,501270,506070,506798,501994,145441,36,1,355.829,356.553,360.629,361.357,28.432,260.028,491.624,231.632,463.229,694.825
bas,axc,1,130518,bas_axc_run1_130518,Bng,2800,P,9,white,center,1,,421,1,1,0,1,,1,508469,513268,0,508890,145441,37,1,363.028,363.449,367.827,-145.441,28.432,260.028,491.624,231.632,463.229,694.825
bas,axc,1,130518,bas_axc_run1_130518,AX,1600,A,X,white,center,1,2,502,1,1,373,1,2,1,516868,521667,522040,517370,145441,38,1,371.427,371.929,376.226,376.599,28.432,260.028,491.624,231.632,463.229,694.825
bas,axc,1,130518,bas_axc_run1_130518,BY,4000,U,P,white,center,1,1,271,1,1,384,1,1,1,524067,528866,529250,524338,145441,39,1,378.626,378.897,383.425,383.809,28.432,260.028,491.624,231.632,463.229,694.825
bas,axc,1,130518,bas_axc_run1_130518,BY,4000,F,C,white,center,1,1,414,1,1,484,1,1,1,533665,538464,538948,534079,145441,40,1,388.224,388.638,393.023,393.507,28.432,260.028,491.624,231.632,463.229,694.825
bas,axc,1,130518,bas_axc_run1_130518,BY,1600,H,U,white,center,1,1,585,1,1,338,1,1,1,543264,548063,548401,543849,145441,41,1,397.823,398.408,402.622,402.96,28.432,260.028,491.624,231.632,463.229,694.825
bas,axc,1,130518,bas_axc_run1_130518,AX,1600,A,X,white,center,1,2,596,1,1,309,1,2,1,550462,555262,555571,551058,145441,42,1,405.021,405.617,409.821,410.13,28.432,260.028,491.624,231.632,463.229,694.825
bas,axc,1,130518,bas_axc_run1_130518,BY,4000,M,F,white,center,1,1,346,1,1,368,1,1,1,557661,562461,562829,558007,145441,43,1,412.22,412.566,417.02,417.388,28.432,260.028,491.624,231.632,463.229,694.825
bas,axc,1,130518,bas_axc_run1_130518,Bng,1600,H,5,white,center,1,,476,1,1,0,1,,1,567260,572059,0,567736,145441,44,1,421.819,422.295,426.618,-145.441,28.432,260.028,491.624,231.632,463.229,694.825
bas,axc,1,130518,bas_axc_run1_130518,BY,4000,U,D,white,center,1,1,593,1,1,441,1,1,1,574459,579258,579699,575052,145441,45,1,429.018,429.611,433.817,434.258,28.432,260.028,491.624,231.632,463.229,694.825
bas,axc,1,130518,bas_axc_run1_130518,AX,2800,A,X,white,center,1,2,518,1,1,752,1,2,1,584057,588856,589608,584575,145441,46,1,438.616,439.134,443.415,444.167,28.432,260.028,491.624,231.632,463.229,694.825
bas,axc,1,130518,bas_axc_run1_130518,AX,2800,A,X,white,center,1,2,409,1,1,296,1,2,1,592456,597255,597551,592865,145441,47,1,447.015,447.424,451.814,452.11,28.432,260.028,491.624,231.632,463.229,694.825
bas,axc,1,130518,bas_axc_run1_130518,AX,2800,A,X,white,center,1,2,440,1,1,262,1,2,1,600871,605670,605932,601311,145441,48,1,455.43,455.87,460.229,460.491,28.432,260.028,491.624,231.632,463.229,694.825
bas,axc,1,130518,bas_axc_run1_130518,Bng,1600,M,4,white,center,1,,465,1,1,0,1,,1,639265,644064,0,639730,145441,49,1,493.824,494.289,498.623,-145.441,28.432,260.028,491.624,231.632,463.229,694.825
bas,axc,1,130518,bas_axc_run1_130518,BY,4000,P,H,white,center,1,1,314,1,1,346,1,1,1,646464,651263,651609,646778,145441,50,1,501.023,501.337,505.822,506.168,28.432,260.028,491.624,231.632,463.229,694.825
bas,axc,1,130518,bas_axc_run1_130518,BY,2800,P,M,white,center,1,1,455,1,1,325,1,1,1,656062,660862,661187,656517,145441,51,1,510.621,511.076,515.421,515.746,28.432,260.028,491.624,231.632,463.229,694.825
bas,axc,1,130518,bas_axc_run1_130518,Ang,4000,A,3,white,center,1,,349,1,1,0,1,,1,664461,669260,0,664810,145441,52,1,519.02,519.369,523.819,-145.441,28.432,260.028,491.624,231.632,463.229,694.825
bas,axc,1,130518,bas_axc_run1_130518,AX,1600,A,X,white,center,1,2,337,1,1,397,1,2,1,674059,678859,679256,674396,145441,53,1,528.618,528.955,533.418,533.815,28.432,260.028,491.624,231.632,463.229,694.825
bas,axc,1,130518,bas_axc_run1_130518,BY,4000,M,F,white,center,1,1,263,1,1,393,1,1,1,681258,686057,686450,681521,145441,54,1,535.817,536.08,540.616,541.009,28.432,260.028,491.624,231.632,463.229,694.825
bas,axc,1,130518,bas_axc_run1_130518,Bng,1600,F,9,white,center,1,,576,1,1,0,1,,1,690857,695656,0,691433,145441,55,1,545.416,545.992,550.215,-145.441,28.432,260.028,491.624,231.632,463.229,694.825
bas,axc,1,130518,bas_axc_run1_130518,Ang,2800,A,9,white,center,1,,287,1,1,0,1,,1,698056,702855,0,698343,145441,56,1,552.615,552.902,557.414,-145.441,28.432,260.028,491.624,231.632,463.229,694.825
bas,axc,1,130518,bas_axc_run1_130518,AX,1600,A,X,white,center,1,2,446,1,1,417,1,2,1,706471,711270,711687,706917,145441,57,1,561.03,561.476,565.829,566.246,28.432,260.028,491.624,231.632,463.229,694.825
bas,axc,1,130518,bas_axc_run1_130518,AX,4000,A,X,white,center,1,2,398,1,1,424,1,2,1,713670,718469,718893,714068,145441,58,1,568.229,568.627,573.028,573.452,28.432,260.028,491.624,231.632,463.229,694.825
bas,axc,1,130518,bas_axc_run1_130518,AX,2800,A,X,white,center,1,2,323,1,1,304,1,2,1,723268,728067,728371,723591,145441,59,1,577.827,578.15,582.626,582.93,28.432,260.028,491.624,231.632,463.229,694.825
bas,axc,1,130518,bas_axc_run1_130518,BX,2800,P,X,white,center,1,1,491,1,1,383,1,1,1,731667,736466,736849,732158,145441,60,1,586.226,586.717,591.025,591.408,28.432,260.028,491.624,231.632,463.229,694.825
bas,axc,1,130518,bas_axc_run1_130518,BY,2800,C,D,white,center,1,1,327,1,1,581,1,1,1,740066,744865,745446,740393,145441,61,1,594.625,594.952,599.424,600.005,28.432,260.028,491.624,231.632,463.229,694.825
bas,axc,1,130518,bas_axc_run1_130518,AX,4000,A,X,white,center,1,2,455,1,1,346,1,2,1,748464,753263,753609,748919,145441,62,1,603.023,603.478,607.822,608.168,28.432,260.028,491.624,231.632,463.229,694.825
bas,axc,1,130518,bas_axc_run1_130518,AX,1600,A,X,white,center,1,2,334,1,1,274,1,2,1,758063,762862,763136,758397,145441,63,1,612.622,612.956,617.421,617.695,28.432,260.028,491.624,231.632,463.229,694.825
bas,axc,1,130518,bas_axc_run1_130518,AY,2800,A,T,white,center,1,1,339,1,1,465,1,1,1,765262,770061,770526,765601,145441,64,1,619.821,620.16,624.62,625.085,28.432,260.028,491.624,231.632,463.229,694.825
bas,axc,1,130518,bas_axc_run1_130518,BY,1600,H,U,white,center,1,1,337,1,1,442,1,1,1,773660,778459,778901,773997,145441,65,1,628.219,628.556,633.018,633.46,28.432,260.028,491.624,231.632,463.229,694.825
bas,axc,1,130518,bas_axc_run1_130518,BY,4000,N,P,white,center,1,1,389,1,1,285,1,1,1,780859,785658,785943,781248,145441,66,1,635.418,635.807,640.217,640.502,28.432,260.028,491.624,231.632,463.229,694.825
bas,axc,1,130518,bas_axc_run1_130518,BY,2800,H,T,white,center,1,1,329,1,1,292,1,1,1,790457,795257,795549,790786,145441,67,1,645.016,645.345,649.816,650.108,28.432,260.028,491.624,231.632,463.229,694.825
bas,axc,1,130518,bas_axc_run1_130518,AX,1600,A,X,white,center,1,2,413,1,1,315,1,2,1,798856,803655,803970,799269,145441,68,1,653.415,653.828,658.214,658.529,28.432,260.028,491.624,231.632,463.229,694.825
bas,axc,1,130518,bas_axc_run1_130518,AY,4000,A,D,white,center,1,1,0,0,,497,1,1,0,806055,810871,811368,0,145441,69,0,660.614,-145.441,665.43,665.927,28.432,260.028,491.624,231.632,463.229,694.825
bas,axc,1,130518,bas_axc_run1_130518,BX,1600,U,X,white,center,1,1,321,1,1,347,0,2,0,815670,820469,820816,815991,145441,70,0,670.229,670.55,675.028,675.375,28.432,260.028,491.624,231.632,463.229,694.825
bas,axc,1,130518,bas_axc_run1_130518,BY,2800,D,N,white,center,1,1,392,1,1,336,1,1,1,822869,827668,828004,823261,145441,71,1,677.428,677.82,682.227,682.563,28.432,260.028,491.624,231.632,463.229,694.825
bas,axc,1,130518,bas_axc_run1_130518,AX,4000,A,X,white,center,1,2,311,1,1,468,1,2,1,831268,836067,836535,831579,145441,72,1,685.827,686.138,690.626,691.094,28.432,260.028,491.624,231.632,463.229,694.825
bas,axc,2,130518,bas_axc_run2_130518,BX,2800,T,X,white,center,1,1,458,1,1,446,1,1,1,59642,64441,64887,60100,29041,1,1,30.601,31.059,35.4,35.846,28.402,260.015,491.611,231.619,463.215,694.812
bas,axc,2,130518,bas_axc_run2_130518,Ang,2800,A,6,white,center,1,,322,1,1,0,1,,1,68041,72857,0,68363,29041,2,1,39,39.322,43.816,-29.041,28.402,260.015,491.611,231.619,463.215,694.812
bas,axc,2,130518,bas_axc_run2_130518,BY,2800,N,H,white,center,1,1,375,1,1,339,1,1,1,76456,81255,81594,76831,29041,3,1,47.415,47.79,52.214,52.553,28.402,260.015,491.611,231.619,463.215,694.812
bas,axc,2,130518,bas_axc_run2_130518,BY,1600,P,C,white,center,1,1,464,1,1,330,1,1,1,84855,89654,89984,85319,29041,4,1,55.814,56.278,60.613,60.943,28.402,260.015,491.611,231.619,463.215,694.812
bas,axc,2,130518,bas_axc_run2_130518,BY,4000,U,F,white,center,1,1,285,1,1,284,1,1,1,92054,96853,97137,92339,29041,5,1,63.013,63.298,67.812,68.096,28.402,260.015,491.611,231.619,463.215,694.812
bas,axc,2,130518,bas_axc_run2_130518,BX,1600,H,X,white,center,1,1,374,1,1,309,1,1,1,101652,106451,106760,102026,29041,6,1,72.611,72.985,77.41,77.719,28.402,260.015,491.611,231.619,463.215,694.812
bas,axc,2,130518,bas_axc_run2_130518,BY,1600,P,T,white,center,1,1,324,1,1,382,1,1,1,108851,113650,114032,109175,29041,7,1,79.81,80.134,84.609,84.991,28.402,260.015,491.611,231.619,463.215,694.812
bas,axc,2,130518,bas_axc_run2_130518,AY,2800,A,F,white,center,1,1,762,1,1,512,1,1,1,116050,120849,121361,116812,29041,8,1,87.009,87.771,91.808,92.32,28.402,260.015,491.611,231.619,463.215,694.812
bas,axc,2,130518,bas_axc_run2_130518,AX,4000,A,X,white,center,1,2,364,1,1,321,1,2,1,124449,129248,129569,124813,29041,9,1,95.408,95.772,100.207,100.528,28.402,260.015,491.611,231.619,463.215,694.812
bas,axc,2,130518,bas_axc_run2_130518,AX,4000,A,X,white,center,1,2,483,1,1,303,1,2,1,134047,138846,139149,134530,29041,10,1,105.006,105.489,109.805,110.108,28.402,260.015,491.611,231.619,463.215,694.812
bas,axc,2,130518,bas_axc_run2_130518,BY,4000,H,F,white,center,1,1,323,1,1,637,1,1,1,143645,148445,149082,143968,29041,11,1,114.604,114.927,119.404,120.041,28.402,260.015,491.611,231.619,463.215,694.812
bas,axc,2,130518,bas_axc_run2_130518,AX,1600,A,X,white,center,1,2,283,1,1,352,1,2,1,153244,158043,158395,153527,29041,12,1,124.203,124.486,129.002,129.354,28.402,260.015,491.611,231.619,463.215,694.812
bas,axc,2,130518,bas_axc_run2_130518,AX,4000,A,X,white,center,1,2,480,1,1,295,1,2,1,160443,165242,165537,160923,29041,13,1,131.402,131.882,136.201,136.496,28.402,260.015,491.611,231.619,463.215,694.812
bas,axc,2,130518,bas_axc_run2_130518,BY,4000,F,H,white,center,1,1,330,1,1,553,1,1,1,170041,174857,175410,170371,29041,14,1,141,141.33,145.816,146.369,28.402,260.015,491.611,231.619,463.215,694.812
bas,axc,2,130518,bas_axc_run2_130518,AX,1600,A,X,white,center,1,2,463,1,1,345,1,2,1,179656,184456,184801,180119,29041,15,1,150.615,151.078,155.415,155.76,28.402,260.015,491.611,231.619,463.215,694.812
bas,axc,2,130518,bas_axc_run2_130518,AY,1600,A,C,white,center,1,1,494,1,1,508,1,1,1,186855,191654,192162,187349,29041,16,1,157.814,158.308,162.613,163.121,28.402,260.015,491.611,231.619,463.215,694.812
bas,axc,2,130518,bas_axc_run2_130518,Ang,2800,A,2,white,center,1,,363,1,1,262,0,1,0,194054,198853,199115,194417,29041,17,0,165.013,165.376,169.812,170.074,28.402,260.015,491.611,231.619,463.215,694.812
bas,axc,2,130518,bas_axc_run2_130518,Bng,1600,M,8,white,center,1,,313,1,1,0,1,,1,202453,207252,0,202766,29041,18,1,173.412,173.725,178.211,-29.041,28.402,260.015,491.611,231.619,463.215,694.812
bas,axc,2,130518,bas_axc_run2_130518,BY,2800,T,H,white,center,1,1,396,1,1,519,1,1,1,209652,214451,214970,210048,29041,19,1,180.611,181.007,185.41,185.929,28.402,260.015,491.611,231.619,463.215,694.812
bas,axc,2,130518,bas_axc_run2_130518,AX,2800,A,X,white,center,1,2,436,1,1,455,1,2,1,218050,222849,223304,218486,29041,20,1,189.009,189.445,193.808,194.263,28.402,260.015,491.611,231.619,463.215,694.812
bas,axc,2,130518,bas_axc_run2_130518,Bng,4000,H,1,white,center,1,,337,1,1,0,1,,1,226449,231248,0,226786,29041,21,1,197.408,197.745,202.207,-29.041,28.402,260.015,491.611,231.619,463.215,694.812
bas,axc,2,130518,bas_axc_run2_130518,BY,2800,U,T,white,center,1,1,570,1,1,518,1,1,1,236047,240847,241365,236617,29041,22,1,207.006,207.576,211.806,212.324,28.402,260.015,491.611,231.619,463.215,694.812
bas,axc,2,130518,bas_axc_run2_130518,AX,1600,A,X,white,center,1,2,364,1,1,349,1,2,1,244446,249245,249594,244810,29041,23,1,215.405,215.769,220.204,220.553,28.402,260.015,491.611,231.619,463.215,694.812
bas,axc,2,130518,bas_axc_run2_130518,AX,4000,A,X,white,center,1,2,237,1,1,335,1,2,1,251645,256444,256779,251882,29041,24,1,222.604,222.841,227.403,227.738,28.402,260.015,491.611,231.619,463.215,694.812
bas,axc,2,130518,bas_axc_run2_130518,AY,4000,A,P,white,center,1,1,508,1,1,600,1,1,1,291255,296054,296654,291763,29041,25,1,262.214,262.722,267.013,267.613,28.402,260.015,491.611,231.619,463.215,694.812
bas,axc,2,130518,bas_axc_run2_130518,AX,4000,A,X,white,center,1,2,330,1,1,433,1,2,1,300854,305653,306086,301184,29041,26,1,271.813,272.143,276.612,277.045,28.402,260.015,491.611,231.619,463.215,694.812
bas,axc,2,130518,bas_axc_run2_130518,BY,2800,F,D,white,center,1,1,317,1,1,538,1,1,1,310452,315251,315789,310769,29041,27,1,281.411,281.728,286.21,286.748,28.402,260.015,491.611,231.619,463.215,694.812
bas,axc,2,130518,bas_axc_run2_130518,Bng,1600,U,6,white,center,1,,443,1,1,0,1,,1,318851,323650,0,319294,29041,28,1,289.81,290.253,294.609,-29.041,28.402,260.015,491.611,231.619,463.215,694.812
bas,axc,2,130518,bas_axc_run2_130518,BY,2800,T,P,white,center,1,1,330,1,1,372,1,1,1,326050,330849,331221,326380,29041,29,1,297.009,297.339,301.808,302.18,28.402,260.015,491.611,231.619,463.215,694.812
bas,axc,2,130518,bas_axc_run2_130518,AX,4000,A,X,white,center,1,2,528,1,1,471,1,2,1,334448,339248,339719,334976,29041,30,1,305.407,305.935,310.207,310.678,28.402,260.015,491.611,231.619,463.215,694.812
bas,axc,2,130518,bas_axc_run2_130518,Ang,1600,A,4,white,center,1,,455,1,1,0,1,,1,344047,348846,0,344502,29041,31,1,315.006,315.461,319.805,-29.041,28.402,260.015,491.611,231.619,463.215,694.812
bas,axc,2,130518,bas_axc_run2_130518,AY,1600,A,U,white,center,1,1,534,1,1,500,1,1,1,351246,356045,356545,351780,29041,32,1,322.205,322.739,327.004,327.504,28.402,260.015,491.611,231.619,463.215,694.812
bas,axc,2,130518,bas_axc_run2_130518,AX,4000,A,X,white,center,1,2,394,1,1,471,1,2,1,358445,363244,363715,358839,29041,33,1,329.404,329.798,334.203,334.674,28.402,260.015,491.611,231.619,463.215,694.812
bas,axc,2,130518,bas_axc_run2_130518,Ang,2800,A,8,white,center,1,,297,1,1,0,1,,1,368043,372842,0,368340,29041,34,1,339.002,339.299,343.801,-29.041,28.402,260.015,491.611,231.619,463.215,694.812
bas,axc,2,130518,bas_axc_run2_130518,AX,1600,A,X,white,center,1,2,268,1,1,516,1,2,1,376442,381241,381757,376710,29041,35,1,347.401,347.669,352.2,352.716,28.402,260.015,491.611,231.619,463.215,694.812
bas,axc,2,130518,bas_axc_run2_130518,BY,2800,D,U,white,center,1,1,258,1,1,289,1,1,1,383657,388456,388745,383915,29041,36,1,354.616,354.874,359.415,359.704,28.402,260.015,491.611,231.619,463.215,694.812
bas,axc,2,130518,bas_axc_run2_130518,BY,4000,H,C,white,center,1,1,367,1,1,391,1,1,1,392056,396855,397246,392423,29041,37,1,363.015,363.382,367.814,368.205,28.402,260.015,491.611,231.619,463.215,694.812
bas,axc,2,130518,bas_axc_run2_130518,AX,1600,A,X,white,center,1,2,462,1,1,399,1,2,1,401654,406454,406853,402116,29041,38,1,372.613,373.075,377.413,377.812,28.402,260.015,491.611,231.619,463.215,694.812
bas,axc,2,130518,bas_axc_run2_130518,AX,4000,A,X,white,center,1,2,564,1,1,308,1,2,1,408853,413652,413960,409417,29041,39,1,379.812,380.376,384.611,384.919,28.402,260.015,491.611,231.619,463.215,694.812
bas,axc,2,130518,bas_axc_run2_130518,AX,2800,A,X,white,center,1,2,393,1,1,470,1,2,1,418452,423251,423721,418845,29041,40,1,389.411,389.804,394.21,394.68,28.402,260.015,491.611,231.619,463.215,694.812
bas,axc,2,130518,bas_axc_run2_130518,BY,1600,D,C,white,center,1,1,414,1,1,373,1,1,1,426850,431649,432022,427264,29041,41,1,397.809,398.223,402.608,402.981,28.402,260.015,491.611,231.619,463.215,694.812
bas,axc,2,130518,bas_axc_run2_130518,Bng,2800,D,3,white,center,1,,0,0,,0,1,,0,434049,438848,0,0,29041,42,0,405.008,-29.041,409.807,-29.041,28.402,260.015,491.611,231.619,463.215,694.812
bas,axc,2,130518,bas_axc_run2_130518,BX,1600,N,X,white,center,1,1,442,1,1,385,1,1,1,442448,447247,447632,442890,29041,43,1,413.407,413.849,418.206,418.591,28.402,260.015,491.611,231.619,463.215,694.812
bas,axc,2,130518,bas_axc_run2_130518,BY,2800,M,N,white,center,1,1,299,1,1,343,1,1,1,449647,454446,454789,449946,29041,44,1,420.606,420.905,425.405,425.748,28.402,260.015,491.611,231.619,463.215,694.812
bas,axc,2,130518,bas_axc_run2_130518,AX,1600,A,X,white,center,1,2,543,1,1,373,1,2,1,458045,462845,463218,458588,29041,45,1,429.004,429.547,433.804,434.177,28.402,260.015,491.611,231.619,463.215,694.812
bas,axc,2,130518,bas_axc_run2_130518,BY,4000,C,N,white,center,1,1,0,0,,804,1,1,0,465244,470043,470847,0,29041,46,0,436.203,-29.041,441.002,441.806,28.402,260.015,491.611,231.619,463.215,694.812
bas,axc,2,130518,bas_axc_run2_130518,BX,4000,D,X,white,center,1,1,451,1,1,383,1,1,1,474843,479642,480025,475294,29041,47,1,445.802,446.253,450.601,450.984,28.402,260.015,491.611,231.619,463.215,694.812
bas,axc,2,130518,bas_axc_run2_130518,BY,2800,N,D,white,center,1,1,348,1,1,375,1,1,1,484441,489257,489632,484789,29041,48,1,455.4,455.748,460.216,460.591,28.402,260.015,491.611,231.619,463.215,694.812
bas,axc,2,130518,bas_axc_run2_130518,AX,4000,A,X,white,center,1,2,381,1,1,331,1,2,1,522852,527651,527982,523233,29041,49,1,493.811,494.192,498.61,498.941,28.402,260.015,491.611,231.619,463.215,694.812
bas,axc,2,130518,bas_axc_run2_130518,BX,1600,N,X,white,center,1,1,529,1,1,545,1,1,1,532450,537249,537794,532979,29041,50,1,503.409,503.938,508.208,508.753,28.402,260.015,491.611,231.619,463.215,694.812
bas,axc,2,130518,bas_axc_run2_130518,BY,4000,C,F,white,center,1,1,589,1,1,432,1,1,1,539649,544448,544880,540238,29041,51,1,510.608,511.197,515.407,515.839,28.402,260.015,491.611,231.619,463.215,694.812
bas,axc,2,130518,bas_axc_run2_130518,AX,4000,A,X,white,center,1,2,391,1,1,446,1,2,1,549247,554047,554493,549638,29041,52,1,520.206,520.597,525.006,525.452,28.402,260.015,491.611,231.619,463.215,694.812
bas,axc,2,130518,bas_axc_run2_130518,AX,2800,A,X,white,center,1,2,328,1,1,443,1,2,1,558846,563645,564088,559174,29041,53,1,529.805,530.133,534.604,535.047,28.402,260.015,491.611,231.619,463.215,694.812
bas,axc,2,130518,bas_axc_run2_130518,BY,2800,M,U,white,center,1,1,0,0,,586,1,1,0,567245,572044,572630,0,29041,54,0,538.204,-29.041,543.003,543.589,28.402,260.015,491.611,231.619,463.215,694.812
bas,axc,2,130518,bas_axc_run2_130518,BY,1600,N,D,white,center,1,1,427,1,1,467,1,1,1,575643,580442,580909,576070,29041,55,1,546.602,547.029,551.401,551.868,28.402,260.015,491.611,231.619,463.215,694.812
bas,axc,2,130518,bas_axc_run2_130518,Ang,2800,A,2,white,center,1,,375,1,1,291,0,2,0,582842,587641,587932,583217,29041,56,0,553.801,554.176,558.6,558.891,28.402,260.015,491.611,231.619,463.215,694.812
bas,axc,2,130518,bas_axc_run2_130518,AY,4000,A,M,white,center,1,1,327,1,1,628,1,1,1,591241,596057,596685,591568,29041,57,1,562.2,562.527,567.016,567.644,28.402,260.015,491.611,231.619,463.215,694.812
bas,axc,2,130518,bas_axc_run2_130518,AX,1600,A,X,white,center,1,2,549,1,1,697,1,2,1,600856,605655,606352,601405,29041,58,1,571.815,572.364,576.614,577.311,28.402,260.015,491.611,231.619,463.215,694.812
bas,axc,2,130518,bas_axc_run2_130518,BY,2800,N,H,white,center,1,1,559,1,1,370,1,1,1,608055,612854,613224,608614,29041,59,1,579.014,579.573,583.813,584.183,28.402,260.015,491.611,231.619,463.215,694.812
bas,axc,2,130518,bas_axc_run2_130518,Bng,1600,D,1,white,center,1,,399,1,1,1183,0,1,0,616453,621253,622436,616852,29041,60,0,587.412,587.811,592.212,593.395,28.402,260.015,491.611,231.619,463.215,694.812
bas,axc,2,130518,bas_axc_run2_130518,BX,4000,T,X,white,center,1,1,467,1,1,0,0,,0,623652,628451,0,624119,29041,61,0,594.611,595.078,599.41,-29.041,28.402,260.015,491.611,231.619,463.215,694.812
bas,axc,2,130518,bas_axc_run2_130518,BY,1600,P,T,white,center,1,1,731,1,1,581,1,1,1,633251,638050,638631,633982,29041,62,1,604.21,604.941,609.009,609.59,28.402,260.015,491.611,231.619,463.215,694.812
bas,axc,2,130518,bas_axc_run2_130518,AY,2800,A,P,white,center,1,1,564,1,1,497,1,1,1,640450,645249,645746,641014,29041,63,1,611.409,611.973,616.208,616.705,28.402,260.015,491.611,231.619,463.215,694.812
bas,axc,2,130518,bas_axc_run2_130518,Bng,2800,N,2,white,center,1,,0,0,,0,1,,0,648848,653647,0,0,29041,64,0,619.807,-29.041,624.606,-29.041,28.402,260.015,491.611,231.619,463.215,694.812
bas,axc,2,130518,bas_axc_run2_130518,BY,2800,D,C,white,center,1,1,624,1,1,356,1,1,1,657247,662046,662402,657871,29041,65,1,628.206,628.83,633.005,633.361,28.402,260.015,491.611,231.619,463.215,694.812
bas,axc,2,130518,bas_axc_run2_130518,BY,4000,P,C,white,center,1,1,587,1,1,576,1,1,1,665645,670445,671021,666232,29041,66,1,636.604,637.191,641.404,641.98,28.402,260.015,491.611,231.619,463.215,694.812
bas,axc,2,130518,bas_axc_run2_130518,AX,4000,A,X,white,center,1,2,464,1,1,529,1,2,1,675244,680043,680572,675708,29041,67,1,646.203,646.667,651.002,651.531,28.402,260.015,491.611,231.619,463.215,694.812
bas,axc,2,130518,bas_axc_run2_130518,AX,1600,A,X,white,center,1,2,352,1,1,399,1,2,1,684842,689642,690041,685194,29041,68,1,655.801,656.153,660.601,661,28.402,260.015,491.611,231.619,463.215,694.812
bas,axc,2,130518,bas_axc_run2_130518,AX,4000,A,X,white,center,1,2,302,1,1,379,1,2,1,692041,696857,697236,692343,29041,69,1,663,663.302,667.816,668.195,28.402,260.015,491.611,231.619,463.215,694.812
bas,axc,2,130518,bas_axc_run2_130518,AX,1600,A,X,white,center,1,2,678,1,1,501,1,2,1,701656,706456,706957,702334,29041,70,1,672.615,673.293,677.415,677.916,28.402,260.015,491.611,231.619,463.215,694.812
bas,axc,2,130518,bas_axc_run2_130518,BY,2800,C,N,white,center,1,1,0,0,,453,1,1,0,708855,713654,714107,0,29041,71,0,679.814,-29.041,684.613,685.066,28.402,260.015,491.611,231.619,463.215,694.812
bas,axc,2,130518,bas_axc_run2_130518,Ang,1600,A,8,white,center,1,,447,1,1,0,1,,1,717254,722053,0,717701,29041,72,1,688.213,688.66,693.012,-29.041,28.402,260.015,491.611,231.619,463.215,694.812
pro,axc,1,130518,pro_axc_run1_130518,BY,1600,U,F,white,center,1,1,538,1,1,379,1,1,1,203113,207912,208291,203651,172493,1,1,30.62,31.158,35.419,35.798,28.42,260.016,491.613,231.621,463.217,694.83
pro,axc,1,130518,pro_axc_run1_130518,BY,4000,P,T,white,center,1,1,517,1,1,305,1,1,1,210312,215111,215416,210829,172493,2,1,37.819,38.336,42.618,42.923,28.42,260.016,491.613,231.621,463.217,694.83
pro,axc,1,130518,pro_axc_run1_130518,AX,4000,A,X,white,center,1,2,397,1,1,299,1,2,1,219910,224709,225008,220307,172493,3,1,47.417,47.814,52.216,52.515,28.42,260.016,491.613,231.621,463.217,694.83
pro,axc,1,130518,pro_axc_run1_130518,AX,4000,A,X,white,center,1,2,413,1,1,280,1,2,1,229508,234308,234588,229921,172493,4,1,57.015,57.428,61.815,62.095,28.42,260.016,491.613,231.621,463.217,694.83
pro,axc,1,130518,pro_axc_run1_130518,BY,2800,T,P,white,center,1,1,414,1,1,388,1,1,1,239107,243906,244294,239521,172493,5,1,66.614,67.028,71.413,71.801,28.42,260.016,491.613,231.621,463.217,694.83
pro,axc,1,130518,pro_axc_run1_130518,Bng,2800,P,2,white,center,1,,395,1,1,0,1,,1,247506,252305,0,247901,172493,6,1,75.013,75.408,79.812,-172.493,28.42,260.016,491.613,231.621,463.217,694.83
pro,axc,1,130518,pro_axc_run1_130518,Ang,2800,A,6,white,center,1,,372,1,1,0,1,,1,255904,260703,0,256276,172493,7,1,83.411,83.783,88.21,-172.493,28.42,260.016,491.613,231.621,463.217,694.83
pro,axc,1,130518,pro_axc_run1_130518,BY,2800,F,H,white,center,1,1,446,1,1,352,1,1,1,264303,269102,269454,264749,172493,8,1,91.81,92.256,96.609,96.961,28.42,260.016,491.613,231.621,463.217,694.83
pro,axc,1,130518,pro_axc_run1_130518,AX,1600,A,X,white,center,1,2,398,1,1,285,1,2,1,272702,277501,277786,273100,172493,9,1,100.209,100.607,105.008,105.293,28.42,260.016,491.613,231.621,463.217,694.83
pro,axc,1,130518,pro_axc_run1_130518,AX,1600,A,X,white,center,1,2,314,1,1,308,1,2,1,279900,284700,285008,280214,172493,10,1,107.407,107.721,112.207,112.515,28.42,260.016,491.613,231.621,463.217,694.83
pro,axc,1,130518,pro_axc_run1_130518,BX,4000,T,X,white,center,1,1,297,1,1,385,1,1,1,287099,291915,292300,287396,172493,11,1,114.606,114.903,119.422,119.807,28.42,260.016,491.613,231.621,463.217,694.83
pro,axc,1,130518,pro_axc_run1_130518,AY,1600,A,U,white,center,1,1,374,1,1,908,1,1,1,296714,301514,302422,297088,172493,12,1,124.221,124.595,129.021,129.929,28.42,260.016,491.613,231.621,463.217,694.83
pro,axc,1,130518,pro_axc_run1_130518,AX,4000,A,X,white,center,1,2,409,1,1,350,1,2,1,303913,308712,309062,304322,172493,13,1,131.42,131.829,136.219,136.569,28.42,260.016,491.613,231.621,463.217,694.83
pro,axc,1,130518,pro_axc_run1_130518,BY,2800,N,H,white,center,1,1,352,1,1,371,1,1,1,313512,318311,318682,313864,172493,14,1,141.019,141.371,145.818,146.189,28.42,260.016,491.613,231.621,463.217,694.83
pro,axc,1,130518,pro_axc_run1_130518,BY,2800,H,C,white,center,1,1,614,1,1,387,1,1,1,321910,326710,327097,322524,172493,15,1,149.417,150.031,154.217,154.604,28.42,260.016,491.613,231.621,463.217,694.83
pro,axc,1,130518,pro_axc_run1_130518,AX,4000,A,X,white,center,1,2,630,1,1,463,1,2,1,330309,335108,335571,330939,172493,16,1,157.816,158.446,162.615,163.078,28.42,260.016,491.613,231.621,463.217,694.83
pro,axc,1,130518,pro_axc_run1_130518,BX,4000,N,X,white,center,1,1,286,1,1,422,1,1,1,339908,344707,345129,340194,172493,17,1,167.415,167.701,172.214,172.636,28.42,260.016,491.613,231.621,463.217,694.83
pro,axc,1,130518,pro_axc_run1_130518,BY,2800,H,F,white,center,1,1,431,1,1,394,1,1,1,349506,354305,354699,349937,172493,18,1,177.013,177.444,181.812,182.206,28.42,260.016,491.613,231.621,463.217,694.83
pro,axc,1,130518,pro_axc_run1_130518,BY,1600,D,U,white,center,1,1,326,1,1,497,1,1,1,357905,362704,363201,358231,172493,19,1,185.412,185.738,190.211,190.708,28.42,260.016,491.613,231.621,463.217,694.83
pro,axc,1,130518,pro_axc_run1_130518,AY,1600,A,F,white,center,1,1,387,1,1,580,1,1,1,365103,369903,370483,365490,172493,20,1,192.61,192.997,197.41,197.99,28.42,260.016,491.613,231.621,463.217,694.83
pro,axc,1,130518,pro_axc_run1_130518,AX,1600,A,X,white,center,1,2,330,1,1,460,1,2,1,372302,377102,377562,372632,172493,21,1,199.809,200.139,204.609,205.069,28.42,260.016,491.613,231.621,463.217,694.83
pro,axc,1,130518,pro_axc_run1_130518,Bng,4000,P,7,white,center,1,,430,1,1,419,0,1,0,379501,384300,384719,379931,172493,22,0,207.008,207.438,211.807,212.226,28.42,260.016,491.613,231.621,463.217,694.83
pro,axc,1,130518,pro_axc_run1_130518,AX,1600,A,X,white,center,1,2,316,1,1,341,1,2,1,389100,393899,394240,389416,172493,23,1,216.607,216.923,221.406,221.747,28.42,260.016,491.613,231.621,463.217,694.83
pro,axc,1,130518,pro_axc_run1_130518,Ang,2800,A,2,white,center,1,,277,1,1,0,1,,1,396315,401114,0,396592,172493,24,1,223.822,224.099,228.621,-172.493,28.42,260.016,491.613,231.621,463.217,694.83
pro,axc,1,130518,pro_axc_run1_130518,BY,4000,P,C,white,center,1,1,496,1,1,447,1,1,1,434709,439508,439955,435205,172493,25,1,262.216,262.712,267.015,267.462,28.42,260.016,491.613,231.621,463.217,694.83
pro,axc,1,130518,pro_axc_run1_130518,Bng,2800,N,2,white,center,1,,479,1,1,0,1,,1,444308,449107,0,444787,172493,26,1,271.815,272.294,276.614,-172.493,28.42,260.016,491.613,231.621,463.217,694.83
pro,axc,1,130518,pro_axc_run1_130518,BX,4000,H,X,white,center,1,1,478,1,1,491,1,1,1,452706,457505,457996,453184,172493,27,1,280.213,280.691,285.012,285.503,28.42,260.016,491.613,231.621,463.217,694.83
pro,axc,1,130518,pro_axc_run1_130518,BY,2800,T,H,white,center,1,1,963,1,1,716,1,1,1,462305,467104,467820,463268,172493,28,1,289.812,290.775,294.611,295.327,28.42,260.016,491.613,231.621,463.217,694.83
pro,axc,1,130518,pro_axc_run1_130518,AX,4000,A,X,white,center,1,2,409,1,1,372,1,2,1,470703,475503,475875,471112,172493,29,1,298.21,298.619,303.01,303.382,28.42,260.016,491.613,231.621,463.217,694.83
pro,axc,1,130518,pro_axc_run1_130518,BX,1600,D,X,white,center,1,1,541,1,1,979,1,1,1,480302,485101,486080,480843,172493,30,1,307.809,308.35,312.608,313.587,28.42,260.016,491.613,231.621,463.217,694.83
pro,axc,1,130518,pro_axc_run1_130518,AX,1600,A,X,white,center,1,2,371,1,1,436,1,2,1,487501,492300,492736,487872,172493,31,1,315.008,315.379,319.807,320.243,28.42,260.016,491.613,231.621,463.217,694.83
pro,axc,1,130518,pro_axc_run1_130518,BY,2800,N,D,white,center,1,1,413,1,1,431,1,1,1,494699,499499,499930,495112,172493,32,1,322.206,322.619,327.006,327.437,28.42,260.016,491.613,231.621,463.217,694.83
pro,axc,1,130518,pro_axc_run1_130518,BY,1600,C,N,white,center,1,1,494,1,1,0,0,,0,503115,507914,0,503609,172493,33,0,330.622,331.116,335.421,-172.493,28.42,260.016,491.613,231.621,463.217,694.83
pro,axc,1,130518,pro_axc_run1_130518,AY,2800,A,M,white,center,1,1,613,1,1,578,1,1,1,510314,515113,515691,510927,172493,34,1,337.821,338.434,342.62,343.198,28.42,260.016,491.613,231.621,463.217,694.83
pro,axc,1,130518,pro_axc_run1_130518,BY,4000,F,D,white,center,1,1,0,0,,454,1,1,0,518712,523512,523966,0,172493,35,0,346.219,-172.493,351.019,351.473,28.42,260.016,491.613,231.621,463.217,694.83
pro,axc,1,130518,pro_axc_run1_130518,BY,1600,M,U,white,center,1,1,0,0,,583,1,1,0,528311,533110,533693,0,172493,36,0,355.818,-172.493,360.617,361.2,28.42,260.016,491.613,231.621,463.217,694.83
pro,axc,1,130518,pro_axc_run1_130518,AX,4000,A,X,white,center,1,2,0,0,,791,0,1,0,535510,540309,541100,0,172493,37,0,363.017,-172.493,367.816,368.607,28.42,260.016,491.613,231.621,463.217,694.83
pro,axc,1,130518,pro_axc_run1_130518,AX,2800,A,X,white,center,1,2,340,1,1,312,1,2,1,545108,549907,550219,545448,172493,38,1,372.615,372.955,377.414,377.726,28.42,260.016,491.613,231.621,463.217,694.83
pro,axc,1,130518,pro_axc_run1_130518,AX,1600,A,X,white,center,1,2,0,0,,637,0,1,0,553507,558306,558943,0,172493,39,0,381.014,-172.493,385.813,386.45,28.42,260.016,491.613,231.621,463.217,694.83
pro,axc,1,130518,pro_axc_run1_130518,BY,1600,C,F,white,center,1,1,594,1,1,402,1,1,1,560706,565505,565907,561300,172493,40,1,388.213,388.807,393.012,393.414,28.42,260.016,491.613,231.621,463.217,694.83
pro,axc,1,130518,pro_axc_run1_130518,AX,4000,A,X,white,center,1,2,373,1,1,388,1,2,1,567904,572704,573092,568277,172493,41,1,395.411,395.784,400.211,400.599,28.42,260.016,491.613,231.621,463.217,694.83
pro,axc,1,130518,pro_axc_run1_130518,BY,4000,M,N,white,center,1,1,0,0,,0,0,,0,577503,582302,0,0,172493,42,0,405.01,-172.493,409.809,-172.493,28.42,260.016,491.613,231.621,463.217,694.83
pro,axc,1,130518,pro_axc_run1_130518,Ang,1600,A,4,white,center,1,,344,1,1,233,0,2,0,587101,591901,592134,587445,172493,43,0,414.608,414.952,419.408,419.641,28.42,260.016,491.613,231.621,463.217,694.83
pro,axc,1,130518,pro_axc_run1_130518,AX,2800,A,X,white,center,1,2,420,1,1,0,0,,0,594300,599099,0,594720,172493,44,0,421.807,422.227,426.606,-172.493,28.42,260.016,491.613,231.621,463.217,694.83
pro,axc,1,130518,pro_axc_run1_130518,AX,2800,A,X,white,center,1,2,503,1,1,0,0,,0,602699,607515,0,603202,172493,45,0,430.206,430.709,435.022,-172.493,28.42,260.016,491.613,231.621,463.217,694.83
pro,axc,1,130518,pro_axc_run1_130518,Ang,1600,A,8,white,center,1,,296,1,1,0,1,,1,611114,615913,0,611410,172493,46,1,438.621,438.917,443.42,-172.493,28.42,260.016,491.613,231.621,463.217,694.83
pro,axc,1,130518,pro_axc_run1_130518,AY,4000,A,P,white,center,1,1,0,0,,370,1,1,0,618313,623112,623482,0,172493,47,0,445.82,-172.493,450.619,450.989,28.42,260.016,491.613,231.621,463.217,694.83
pro,axc,1,130518,pro_axc_run1_130518,Bng,2800,D,1,white,center,1,,372,1,1,0,1,,1,627912,632711,0,628284,172493,48,1,455.419,455.791,460.218,-172.493,28.42,260.016,491.613,231.621,463.217,694.83
pro,axc,1,130518,pro_axc_run1_130518,BY,2800,U,T,white,center,1,1,423,1,1,894,1,1,1,666305,671105,671999,666728,172493,49,1,493.812,494.235,498.612,499.506,28.42,260.016,491.613,231.621,463.217,694.83
pro,axc,1,130518,pro_axc_run1_130518,AX,2800,A,X,white,center,1,2,408,1,1,0,0,,0,674704,679503,0,675112,172493,50,0,502.211,502.619,507.01,-172.493,28.42,260.016,491.613,231.621,463.217,694.83
pro,axc,1,130518,pro_axc_run1_130518,BY,4000,D,C,white,center,1,1,770,1,1,493,1,1,1,683103,687902,688395,683873,172493,51,1,510.61,511.38,515.409,515.902,28.42,260.016,491.613,231.621,463.217,694.83
pro,axc,1,130518,pro_axc_run1_130518,BX,4000,T,X,white,center,1,1,329,1,1,399,1,1,1,692701,697500,697899,693030,172493,52,1,520.208,520.537,525.007,525.406,28.42,260.016,491.613,231.621,463.217,694.83
pro,axc,1,130518,pro_axc_run1_130518,AX,2800,A,X,white,center,1,2,269,1,1,359,1,2,1,702300,707099,707458,702569,172493,53,1,529.807,530.076,534.606,534.965,28.42,260.016,491.613,231.621,463.217,694.83
pro,axc,1,130518,pro_axc_run1_130518,Bng,2800,D,3,white,center,1,,497,1,1,616,0,1,0,710715,715514,716130,711212,172493,54,0,538.222,538.719,543.021,543.637,28.42,260.016,491.613,231.621,463.217,694.83
pro,axc,1,130518,pro_axc_run1_130518,AX,1600,A,X,white,center,1,2,239,1,1,465,1,2,1,719114,723913,724378,719353,172493,55,1,546.621,546.86,551.42,551.885,28.42,260.016,491.613,231.621,463.217,694.83
pro,axc,1,130518,pro_axc_run1_130518,AX,1600,A,X,white,center,1,2,422,1,1,606,1,2,1,726312,731112,731718,726734,172493,56,1,553.819,554.241,558.619,559.225,28.42,260.016,491.613,231.621,463.217,694.83
pro,axc,1,130518,pro_axc_run1_130518,Bng,4000,C,3,white,center,1,,216,1,1,0,1,,1,733511,738311,0,733727,172493,57,1,561.018,561.234,565.818,-172.493,28.42,260.016,491.613,231.621,463.217,694.83
pro,axc,1,130518,pro_axc_run1_130518,BY,1600,T,P,white,center,1,1,470,1,1,653,1,1,1,743110,747909,748562,743580,172493,58,1,570.617,571.087,575.416,576.069,28.42,260.016,491.613,231.621,463.217,694.83
pro,axc,1,130518,pro_axc_run1_130518,AX,4000,A,X,white,center,1,2,0,0,,437,0,1,0,750309,755108,755545,0,172493,59,0,577.816,-172.493,582.615,583.052,28.42,260.016,491.613,231.621,463.217,694.83
pro,axc,1,130518,pro_axc_run1_130518,AY,1600,A,C,white,center,1,1,0,0,,516,1,1,0,759907,764706,765222,0,172493,60,0,587.414,-172.493,592.213,592.729,28.42,260.016,491.613,231.621,463.217,694.83
pro,axc,1,130518,pro_axc_run1_130518,BY,4000,F,D,white,center,1,1,0,0,,712,1,1,0,767106,771905,772617,0,172493,61,0,594.613,-172.493,599.412,600.124,28.42,260.016,491.613,231.621,463.217,694.83
pro,axc,1,130518,pro_axc_run1_130518,AX,2800,A,X,white,center,1,2,536,1,1,761,0,1,0,776704,781504,782265,777240,172493,62,0,604.211,604.747,609.011,609.772,28.42,260.016,491.613,231.621,463.217,694.83
pro,axc,1,130518,pro_axc_run1_130518,BY,2800,P,T,white,center,1,1,400,1,1,0,0,,0,785103,789902,0,785503,172493,63,0,612.61,613.01,617.409,-172.493,28.42,260.016,491.613,231.621,463.217,694.83
pro,axc,1,130518,pro_axc_run1_130518,AY,1600,A,F,white,center,1,1,507,1,1,996,1,1,1,793502,798301,799297,794009,172493,64,1,621.009,621.516,625.808,626.804,28.42,260.016,491.613,231.621,463.217,694.83
pro,axc,1,130518,pro_axc_run1_130518,Ang,4000,A,8,white,center,1,,454,1,1,0,1,,1,800701,805500,0,801155,172493,65,1,628.208,628.662,633.007,-172.493,28.42,260.016,491.613,231.621,463.217,694.83
pro,axc,1,130518,pro_axc_run1_130518,AX,2800,A,X,white,center,1,2,0,0,,0,0,,0,810299,815115,0,0,172493,66,0,637.806,-172.493,642.622,-172.493,28.42,260.016,491.613,231.621,463.217,694.83
pro,axc,1,130518,pro_axc_run1_130518,BY,2800,N,D,white,center,1,1,368,1,1,645,1,1,1,818714,823514,824159,819082,172493,67,1,646.221,646.589,651.021,651.666,28.42,260.016,491.613,231.621,463.217,694.83
pro,axc,1,130518,pro_axc_run1_130518,AX,4000,A,X,white,center,1,2,0,0,,373,0,1,0,827113,831912,832285,0,172493,68,0,654.62,-172.493,659.419,659.792,28.42,260.016,491.613,231.621,463.217,694.83
pro,axc,1,130518,pro_axc_run1_130518,BX,4000,D,X,white,center,1,1,0,0,,547,1,1,0,836712,841511,842058,0,172493,69,0,664.219,-172.493,669.018,669.565,28.42,260.016,491.613,231.621,463.217,694.83
pro,axc,1,130518,pro_axc_run1_130518,Ang,1600,A,2,white,center,1,,0,0,,0,1,,0,846310,851109,0,0,172493,70,0,673.817,-172.493,678.616,-172.493,28.42,260.016,491.613,231.621,463.217,694.83
pro,axc,1,130518,pro_axc_run1_130518,BY,1600,M,N,white,center,1,1,667,1,1,464,1,1,1,853509,858308,858772,854176,172493,71,1,681.016,681.683,685.815,686.279,28.42,260.016,491.613,231.621,463.217,694.83
pro,axc,1,130518,pro_axc_run1_130518,BY,1600,U,F,white,center,1,1,417,1,1,444,1,1,1,860708,865507,865951,861125,172493,72,1,688.215,688.632,693.014,693.458,28.42,260.016,491.613,231.621,463.217,694.83
pro,axc,2,130518,pro_axc_run2_130518,BY,2800,H,T,white,center,1,1,237,1,1,507,1,1,1,83691,88490,88997,83928,53076,1,1,30.615,30.852,35.414,35.921,28.415,260.011,491.608,231.616,463.229,694.825
pro,axc,2,130518,pro_axc_run2_130518,BY,4000,P,M,white,center,1,1,389,1,1,327,1,1,1,92089,96889,97216,92478,53076,2,1,39.013,39.402,43.813,44.14,28.415,260.011,491.608,231.616,463.229,694.825
pro,axc,2,130518,pro_axc_run2_130518,Ang,1600,A,3,white,center,1,,585,1,1,414,0,1,0,101688,106487,106901,102273,53076,3,0,48.612,49.197,53.411,53.825,28.415,260.011,491.608,231.616,463.229,694.825
pro,axc,2,130518,pro_axc_run2_130518,AX,2800,A,X,white,center,1,2,285,1,1,586,1,2,1,108887,113686,114272,109172,53076,4,1,55.811,56.096,60.61,61.196,28.415,260.011,491.608,231.616,463.229,694.825
pro,axc,2,130518,pro_axc_run2_130518,AX,4000,A,X,white,center,1,2,611,1,1,408,1,2,1,117285,122085,122493,117896,53076,5,1,64.209,64.82,69.009,69.417,28.415,260.011,491.608,231.616,463.229,694.825
pro,axc,2,130518,pro_axc_run2_130518,AX,2800,A,X,white,center,1,2,721,1,1,466,1,2,1,126884,131683,132149,127605,53076,6,1,73.808,74.529,78.607,79.073,28.415,260.011,491.608,231.616,463.229,694.825
pro,axc,2,130518,pro_axc_run2_130518,BX,1600,F,X,white,center,1,1,449,1,1,330,1,1,1,135283,140082,140412,135732,53076,7,1,82.207,82.656,87.006,87.336,28.415,260.011,491.608,231.616,463.229,694.825
pro,axc,2,130518,pro_axc_run2_130518,Bng,4000,F,5,white,center,1,,0,0,,581,0,1,0,142498,147297,147878,0,53076,8,0,89.422,-53.076,94.221,94.802,28.415,260.011,491.608,231.616,463.229,694.825
pro,axc,2,130518,pro_axc_run2_130518,BY,1600,P,H,white,center,1,1,386,1,1,544,1,1,1,152096,156896,157440,152482,53076,9,1,99.02,99.406,103.82,104.364,28.415,260.011,491.608,231.616,463.229,694.825
pro,axc,2,130518,pro_axc_run2_130518,AY,4000,A,N,white,center,1,1,0,0,,488,1,1,0,159295,164095,164583,0,53076,10,0,106.219,-53.076,111.019,111.507,28.415,260.011,491.608,231.616,463.229,694.825
pro,axc,2,130518,pro_axc_run2_130518,BY,1600,M,P,white,center,1,1,0,0,,395,1,1,0,168894,173693,174088,0,53076,11,0,115.818,-53.076,120.617,121.012,28.415,260.011,491.608,231.616,463.229,694.825
pro,axc,2,130518,pro_axc_run2_130518,AX,2800,A,X,white,center,1,2,415,1,1,453,1,2,1,176093,180892,181345,176508,53076,12,1,123.017,123.432,127.816,128.269,28.415,260.011,491.608,231.616,463.229,694.825
pro,axc,2,130518,pro_axc_run2_130518,AX,4000,A,X,white,center,1,2,0,0,,0,0,,0,184491,189291,0,0,53076,13,0,131.415,-53.076,136.215,-53.076,28.415,260.011,491.608,231.616,463.229,694.825
pro,axc,2,130518,pro_axc_run2_130518,BY,1600,D,T,white,center,1,1,436,1,1,0,0,,0,194090,198889,0,194526,53076,14,0,141.014,141.45,145.813,-53.076,28.415,260.011,491.608,231.616,463.229,694.825
pro,axc,2,130518,pro_axc_run2_130518,Bng,1600,C,8,white,center,1,,747,1,1,0,1,,1,201289,206088,0,202036,53076,15,1,148.213,148.96,153.012,-53.076,28.415,260.011,491.608,231.616,463.229,694.825
pro,axc,2,130518,pro_axc_run2_130518,AX,1600,A,X,white,center,1,2,0,0,,488,0,1,0,208487,213287,213775,0,53076,16,0,155.411,-53.076,160.211,160.699,28.415,260.011,491.608,231.616,463.229,694.825
pro,axc,2,130518,pro_axc_run2_130518,AY,4000,A,H,white,center,1,1,319,1,1,521,1,1,1,215686,220486,221007,216005,53076,17,1,162.61,162.929,167.41,167.931,28.415,260.011,491.608,231.616,463.229,694.825
pro,axc,2,130518,pro_axc_run2_130518,Ang,2800,A,7,white,center,1,,361,1,1,0,1,,1,225285,230084,0,225646,53076,18,1,172.209,172.57,177.008,-53.076,28.415,260.011,491.608,231.616,463.229,694.825
pro,axc,2,130518,pro_axc_run2_130518,AX,2800,A,X,white,center,1,2,458,1,1,393,1,2,1,233683,238483,238876,234141,53076,19,1,180.607,181.065,185.407,185.8,28.415,260.011,491.608,231.616,463.229,694.825
pro,axc,2,130518,pro_axc_run2_130518,BY,4000,N,P,white,center,1,1,497,1,1,470,1,1,1,242082,246898,247368,242579,53076,20,1,189.006,189.503,193.822,194.292,28.415,260.011,491.608,231.616,463.229,694.825
pro,axc,2,130518,pro_axc_run2_130518,BX,2800,P,X,white,center,1,1,448,1,1,531,1,1,1,251697,256496,257027,252145,53076,21,1,198.621,199.069,203.42,203.951,28.415,260.011,491.608,231.616,463.229,694.825
pro,axc,2,130518,pro_axc_run2_130518,BY,1600,F,M,white,center,1,1,385,1,1,309,1,1,1,260096,264895,265204,260481,53076,22,1,207.02,207.405,211.819,212.128,28.415,260.011,491.608,231.616,463.229,694.825
pro,axc,2,130518,pro_axc_run2_130518,AX,4000,A,X,white,center,1,2,508,1,1,1302,1,2,1,267295,272094,273396,267803,53076,23,1,214.219,214.727,219.018,220.32,28.415,260.011,491.608,231.616,463.229,694.825
pro,axc,2,130518,pro_axc_run2_130518,BY,2800,D,N,white,center,1,1,300,1,1,439,1,1,1,276893,281692,282131,277193,53076,24,1,223.817,224.117,228.616,229.055,28.415,260.011,491.608,231.616,463.229,694.825
pro,axc,2,130518,pro_axc_run2_130518,AX,2800,A,X,white,center,1,2,304,1,1,313,1,2,1,315287,320086,320399,315591,53076,25,1,262.211,262.515,267.01,267.323,28.415,260.011,491.608,231.616,463.229,694.825
pro,axc,2,130518,pro_axc_run2_130518,AX,4000,A,X,white,center,1,2,327,1,1,291,1,2,1,323686,328485,328776,324013,53076,26,1,270.61,270.937,275.409,275.7,28.415,260.011,491.608,231.616,463.229,694.825
pro,axc,2,130518,pro_axc_run2_130518,AX,4000,A,X,white,center,1,2,238,1,1,293,1,2,1,333284,338083,338376,333522,53076,27,1,280.208,280.446,285.007,285.3,28.415,260.011,491.608,231.616,463.229,694.825
pro,axc,2,130518,pro_axc_run2_130518,AX,1600,A,X,white,center,1,2,304,1,1,471,0,1,0,342883,347682,348153,343187,53076,28,0,289.807,290.111,294.606,295.077,28.415,260.011,491.608,231.616,463.229,694.825
pro,axc,2,130518,pro_axc_run2_130518,BY,2800,C,M,white,center,1,1,215,1,1,495,1,1,1,350082,354897,355392,350297,53076,29,1,297.006,297.221,301.821,302.316,28.415,260.011,491.608,231.616,463.229,694.825
pro,axc,2,130518,pro_axc_run2_130518,Bng,4000,H,8,white,center,1,,360,1,1,0,1,,1,358497,363296,0,358857,53076,30,1,305.421,305.781,310.22,-53.076,28.415,260.011,491.608,231.616,463.229,694.825
pro,axc,2,130518,pro_axc_run2_130518,AX,1600,A,X,white,center,1,2,394,1,1,287,1,2,1,368095,372895,373182,368489,53076,31,1,315.019,315.413,319.819,320.106,28.415,260.011,491.608,231.616,463.229,694.825
pro,axc,2,130518,pro_axc_run2_130518,Ang,1600,A,1,white,center,1,,401,1,1,0,1,,1,375294,380093,0,375695,53076,32,1,322.218,322.619,327.017,-53.076,28.415,260.011,491.608,231.616,463.229,694.825
pro,axc,2,130518,pro_axc_run2_130518,AX,2800,A,X,white,center,1,2,284,1,1,340,1,2,1,382493,387292,387632,382777,53076,33,1,329.417,329.701,334.216,334.556,28.415,260.011,491.608,231.616,463.229,694.825
pro,axc,2,130518,pro_axc_run2_130518,BY,4000,T,N,white,center,1,1,525,1,1,564,1,1,1,390892,395691,396255,391417,53076,34,1,337.816,338.341,342.615,343.179,28.415,260.011,491.608,231.616,463.229,694.825
pro,axc,2,130518,pro_axc_run2_130518,BX,1600,M,X,white,center,1,1,481,1,1,469,1,1,1,400490,405289,405758,400971,53076,35,1,347.414,347.895,352.213,352.682,28.415,260.011,491.608,231.616,463.229,694.825
pro,axc,2,130518,pro_axc_run2_130518,BY,2800,T,M,white,center,1,1,354,1,1,437,1,1,1,407689,412488,412925,408043,53076,36,1,354.613,354.967,359.412,359.849,28.415,260.011,491.608,231.616,463.229,694.825
pro,axc,2,130518,pro_axc_run2_130518,BY,1600,C,D,white,center,1,1,307,1,1,296,1,1,1,416088,420887,421183,416395,53076,37,1,363.012,363.319,367.811,368.107,28.415,260.011,491.608,231.616,463.229,694.825
pro,axc,2,130518,pro_axc_run2_130518,Bng,4000,C,6,white,center,1,,0,0,,0,1,,0,423287,428086,0,0,53076,38,0,370.211,-53.076,375.01,-53.076,28.415,260.011,491.608,231.616,463.229,694.825
pro,axc,2,130518,pro_axc_run2_130518,AY,2800,A,D,white,center,1,1,501,1,1,441,1,1,1,432885,437684,438125,433386,53076,39,1,379.809,380.31,384.608,385.049,28.415,260.011,491.608,231.616,463.229,694.825
pro,axc,2,130518,pro_axc_run2_130518,BY,4000,N,U,white,center,1,1,0,0,,555,1,1,0,441284,446083,446638,0,53076,40,0,388.208,-53.076,393.007,393.562,28.415,260.011,491.608,231.616,463.229,694.825
pro,axc,2,130518,pro_axc_run2_130518,AY,4000,A,T,white,center,1,1,458,1,1,0,0,,0,450882,455698,0,451340,53076,41,0,397.806,398.264,402.622,-53.076,28.415,260.011,491.608,231.616,463.229,694.825
pro,axc,2,130518,pro_axc_run2_130518,BX,1600,U,X,white,center,1,1,470,1,1,372,0,2,0,460497,465297,465669,460967,53076,42,0,407.421,407.891,412.221,412.593,28.415,260.011,491.608,231.616,463.229,694.825
pro,axc,2,130518,pro_axc_run2_130518,BY,2800,M,F,white,center,1,1,275,1,1,429,1,1,1,467696,472495,472924,467971,53076,43,1,414.62,414.895,419.419,419.848,28.415,260.011,491.608,231.616,463.229,694.825
pro,axc,2,130518,pro_axc_run2_130518,AX,2800,A,X,white,center,1,2,249,1,1,318,0,1,0,476095,480894,481212,476344,53076,44,0,423.019,423.268,427.818,428.136,28.415,260.011,491.608,231.616,463.229,694.825
pro,axc,2,130518,pro_axc_run2_130518,BY,4000,F,C,white,center,1,1,601,1,1,1029,1,1,1,484493,489293,490322,485094,53076,45,1,431.417,432.018,436.217,437.246,28.415,260.011,491.608,231.616,463.229,694.825
pro,axc,2,130518,pro_axc_run2_130518,AX,1600,A,X,white,center,1,2,495,1,1,0,0,,0,494092,498891,0,494587,53076,46,0,441.016,441.511,445.815,-53.076,28.415,260.011,491.608,231.616,463.229,694.825
pro,axc,2,130518,pro_axc_run2_130518,Ang,1600,A,9,white,center,1,,0,0,,0,1,,0,501291,506090,0,0,53076,47,0,448.215,-53.076,453.014,-53.076,28.415,260.011,491.608,231.616,463.229,694.825
pro,axc,2,130518,pro_axc_run2_130518,BY,2800,H,U,white,center,1,1,420,1,1,478,1,1,1,508490,513289,513767,508910,53076,48,1,455.414,455.834,460.213,460.691,28.415,260.011,491.608,231.616,463.229,694.825
pro,axc,2,130518,pro_axc_run2_130518,BY,4000,U,D,white,center,1,1,1015,1,1,300,1,1,1,546883,551683,551983,547898,53076,49,1,493.807,494.822,498.607,498.907,28.415,260.011,491.608,231.616,463.229,694.825
pro,axc,2,130518,pro_axc_run2_130518,AX,4000,A,X,white,center,1,2,545,1,1,287,1,2,1,556482,561298,561585,557027,53076,50,1,503.406,503.951,508.222,508.509,28.415,260.011,491.608,231.616,463.229,694.825
pro,axc,2,130518,pro_axc_run2_130518,BY,2800,U,P,white,center,1,1,269,1,1,378,1,1,1,566097,570896,571274,566366,53076,51,1,513.021,513.29,517.82,518.198,28.415,260.011,491.608,231.616,463.229,694.825
pro,axc,2,130518,pro_axc_run2_130518,AY,1600,A,H,white,center,1,1,383,1,1,379,0,2,0,574496,579295,579674,574879,53076,52,0,521.42,521.803,526.219,526.598,28.415,260.011,491.608,231.616,463.229,694.825
pro,axc,2,130518,pro_axc_run2_130518,AX,2800,A,X,white,center,1,2,200,1,1,410,0,1,0,581695,586494,586904,581895,53076,53,0,528.619,528.819,533.418,533.828,28.415,260.011,491.608,231.616,463.229,694.825
pro,axc,2,130518,pro_axc_run2_130518,Ang,4000,A,5,white,center,1,,292,1,1,0,1,,1,590093,594892,0,590385,53076,54,1,537.017,537.309,541.816,-53.076,28.415,260.011,491.608,231.616,463.229,694.825
pro,axc,2,130518,pro_axc_run2_130518,AY,2800,A,D,white,center,1,1,325,1,1,488,1,1,1,599692,604491,604979,600017,53076,55,1,546.616,546.941,551.415,551.903,28.415,260.011,491.608,231.616,463.229,694.825
pro,axc,2,130518,pro_axc_run2_130518,BY,4000,H,T,white,center,1,1,356,1,1,373,1,1,1,608090,612890,613263,608446,53076,56,1,555.014,555.37,559.814,560.187,28.415,260.011,491.608,231.616,463.229,694.825
pro,axc,2,130518,pro_axc_run2_130518,AX,1600,A,X,white,center,1,2,490,1,1,386,1,2,1,617689,622488,622874,618179,53076,57,1,564.613,565.103,569.412,569.798,28.415,260.011,491.608,231.616,463.229,694.825
pro,axc,2,130518,pro_axc_run2_130518,BY,1600,C,D,white,center,1,1,306,1,1,372,1,1,1,624888,629687,630059,625194,53076,58,1,571.812,572.118,576.611,576.983,28.415,260.011,491.608,231.616,463.229,694.825
pro,axc,2,130518,pro_axc_run2_130518,AX,2800,A,X,white,center,1,2,258,1,1,314,1,2,1,632087,636886,637200,632345,53076,59,1,579.011,579.269,583.81,584.124,28.415,260.011,491.608,231.616,463.229,694.825
pro,axc,2,130518,pro_axc_run2_130518,BX,1600,C,X,white,center,1,1,326,1,1,484,0,2,0,640485,645284,645768,640811,53076,60,0,587.409,587.735,592.208,592.692,28.415,260.011,491.608,231.616,463.229,694.825
pro,axc,2,130518,pro_axc_run2_130518,BY,1600,H,U,white,center,1,1,277,1,1,434,1,1,1,647684,652483,652917,647961,53076,61,1,594.608,594.885,599.407,599.841,28.415,260.011,491.608,231.616,463.229,694.825
pro,axc,2,130518,pro_axc_run2_130518,AX,2800,A,X,white,center,1,2,320,1,1,343,1,2,1,654883,659682,660025,655203,53076,62,1,601.807,602.127,606.606,606.949,28.415,260.011,491.608,231.616,463.229,694.825
pro,axc,2,130518,pro_axc_run2_130518,Ang,4000,A,7,white,center,1,,354,1,1,0,1,,1,663282,668097,0,663636,53076,63,1,610.206,610.56,615.021,-53.076,28.415,260.011,491.608,231.616,463.229,694.825
pro,axc,2,130518,pro_axc_run2_130518,BX,4000,P,X,white,center,1,1,434,1,1,526,0,2,0,672897,677696,678222,673331,53076,64,0,619.821,620.255,624.62,625.146,28.415,260.011,491.608,231.616,463.229,694.825
pro,axc,2,130518,pro_axc_run2_130518,AX,2800,A,X,white,center,1,2,401,1,1,364,1,2,1,682495,687294,687658,682896,53076,65,1,629.419,629.82,634.218,634.582,28.415,260.011,491.608,231.616,463.229,694.825
pro,axc,2,130518,pro_axc_run2_130518,AX,1600,A,X,white,center,1,2,468,1,1,284,1,2,1,690894,695693,695977,691362,53076,66,1,637.818,638.286,642.617,642.901,28.415,260.011,491.608,231.616,463.229,694.825
pro,axc,2,130518,pro_axc_run2_130518,BY,2800,F,C,white,center,1,1,333,1,1,487,1,1,1,698093,702892,703379,698426,53076,67,1,645.017,645.35,649.816,650.303,28.415,260.011,491.608,231.616,463.229,694.825
pro,axc,2,130518,pro_axc_run2_130518,BY,1600,U,D,white,center,1,1,395,1,1,405,1,1,1,706491,711291,711696,706886,53076,68,1,653.415,653.81,658.215,658.62,28.415,260.011,491.608,231.616,463.229,694.825
pro,axc,2,130518,pro_axc_run2_130518,Bng,2800,N,3,white,center,1,,387,1,1,0,1,,1,713690,718489,0,714077,53076,69,1,660.614,661.001,665.413,-53.076,28.415,260.011,491.608,231.616,463.229,694.825
pro,axc,2,130518,pro_axc_run2_130518,AX,4000,A,X,white,center,1,2,313,1,1,321,1,2,1,722089,726888,727209,722402,53076,70,1,669.013,669.326,673.812,674.133,28.415,260.011,491.608,231.616,463.229,694.825
pro,axc,2,130518,pro_axc_run2_130518,Bng,4000,T,6,white,center,1,,329,1,1,0,1,,1,731687,736487,0,732016,53076,71,1,678.611,678.94,683.411,-53.076,28.415,260.011,491.608,231.616,463.229,694.825
pro,axc,2,130518,pro_axc_run2_130518,BY,1600,P,M,white,center,1,1,430,1,1,405,1,1,1,741286,746085,746490,741716,53076,72,1,688.21,688.64,693.009,693.414,28.415,260.011,491.608,231.616,463.229,694.825
rea,axc,1,130518,rea_axc_run1_130518,BY,1600,C,M,white,Above,1,1,449,1,1,519,1,1,1,147013,151812,152331,147462,116395,1,1,30.618,31.067,35.417,35.936,28.418,260.015,491.611,231.619,463.216,694.829
rea,axc,1,130518,rea_axc_run1_130518,BY,2800,N,P,white,Above,1,1,604,1,1,443,1,1,1,154212,159011,159454,154816,116395,2,1,37.817,38.421,42.616,43.059,28.418,260.015,491.611,231.619,463.216,694.829
rea,axc,1,130518,rea_axc_run1_130518,BY,2800,F,M,white,Above,1,1,331,1,1,349,1,1,1,162611,167410,167759,162942,116395,3,1,46.216,46.547,51.015,51.364,28.418,260.015,491.611,231.619,463.216,694.829
rea,axc,1,130518,rea_axc_run1_130518,BY,4000,H,U,white,Above,1,1,370,1,1,373,1,1,1,171009,175808,176181,171379,116395,4,1,54.614,54.984,59.413,59.786,28.418,260.015,491.611,231.619,463.216,694.829
rea,axc,1,130518,rea_axc_run1_130518,AX,4000,A,X,white,Above,1,2,402,1,1,240,1,2,1,180608,185407,185647,181010,116395,5,1,64.213,64.615,69.012,69.252,28.418,260.015,491.611,231.619,463.216,694.829
rea,axc,1,130518,rea_axc_run1_130518,BX,2800,U,X,red,Below,1,1,271,1,1,392,1,1,1,190206,195005,195397,190477,116395,6,1,73.811,74.082,78.61,79.002,28.418,260.015,491.611,231.619,463.216,694.829
rea,axc,1,130518,rea_axc_run1_130518,Ang,4000,A,8,red,Below,1,,352,1,1,0,1,,1,198605,203404,0,198957,116395,7,1,82.21,82.562,87.009,-116.395,28.418,260.015,491.611,231.619,463.216,694.829
rea,axc,1,130518,rea_axc_run1_130518,BY,1600,U,P,white,Above,1,1,441,1,1,415,1,1,1,208203,213002,213417,208644,116395,8,1,91.808,92.249,96.607,97.022,28.418,260.015,491.611,231.619,463.216,694.829
rea,axc,1,130518,rea_axc_run1_130518,AX,1600,A,X,white,Above,1,2,316,1,1,323,1,2,1,215402,220201,220524,215718,116395,9,1,99.007,99.323,103.806,104.129,28.418,260.015,491.611,231.619,463.216,694.829
rea,axc,1,130518,rea_axc_run1_130518,AX,4000,A,X,white,Above,1,2,285,1,1,330,1,2,1,222601,227417,227747,222886,116395,10,1,106.206,106.491,111.022,111.352,28.418,260.015,491.611,231.619,463.216,694.829
rea,axc,1,130518,rea_axc_run1_130518,AX,1600,A,X,white,Above,1,2,393,1,1,297,1,2,1,232216,237015,237312,232609,116395,11,1,115.821,116.214,120.62,120.917,28.418,260.015,491.611,231.619,463.216,694.829
rea,axc,1,130518,rea_axc_run1_130518,BY,2800,F,C,white,Above,1,1,408,1,1,635,1,1,1,239415,244215,244850,239823,116395,12,1,123.02,123.428,127.82,128.455,28.418,260.015,491.611,231.619,463.216,694.829
rea,axc,1,130518,rea_axc_run1_130518,Bng,1600,D,3,red,Below,1,,322,1,1,0,1,,1,247814,252613,0,248136,116395,13,1,131.419,131.741,136.218,-116.395,28.418,260.015,491.611,231.619,463.216,694.829
rea,axc,1,130518,rea_axc_run1_130518,AX,2800,A,X,white,Above,1,2,263,1,1,312,1,2,1,255012,259812,260124,255275,116395,14,1,138.617,138.88,143.417,143.729,28.418,260.015,491.611,231.619,463.216,694.829
rea,axc,1,130518,rea_axc_run1_130518,BY,2800,M,F,white,Above,1,1,361,1,1,375,1,1,1,263411,268210,268585,263772,116395,15,1,147.016,147.377,151.815,152.19,28.418,260.015,491.611,231.619,463.216,694.829
rea,axc,1,130518,rea_axc_run1_130518,Ang,2800,A,2,red,Below,1,,416,1,1,0,1,,1,271810,276609,0,272226,116395,16,1,155.415,155.831,160.214,-116.395,28.418,260.015,491.611,231.619,463.216,694.829
rea,axc,1,130518,rea_axc_run1_130518,AX,1600,A,X,white,Above,1,2,370,1,1,348,1,2,1,280208,285008,285356,280578,116395,17,1,163.813,164.183,168.613,168.961,28.418,260.015,491.611,231.619,463.216,694.829
rea,axc,1,130518,rea_axc_run1_130518,AY,4000,A,H,red,Below,1,1,325,1,1,404,0,2,0,287407,292206,292610,287732,116395,18,0,171.012,171.337,175.811,176.215,28.418,260.015,491.611,231.619,463.216,694.829
rea,axc,1,130518,rea_axc_run1_130518,AX,2800,A,X,white,Above,1,2,434,1,1,467,1,2,1,297006,301805,302272,297440,116395,19,1,180.611,181.045,185.41,185.877,28.418,260.015,491.611,231.619,463.216,694.829
rea,axc,1,130518,rea_axc_run1_130518,AY,4000,A,D,red,Below,1,1,367,1,1,627,1,1,1,305404,310204,310831,305771,116395,20,1,189.009,189.376,193.809,194.436,28.418,260.015,491.611,231.619,463.216,694.829
rea,axc,1,130518,rea_axc_run1_130518,Bng,1600,T,1,red,Below,1,,495,1,1,0,1,,1,315003,319802,0,315498,116395,21,1,198.608,199.103,203.407,-116.395,28.418,260.015,491.611,231.619,463.216,694.829
rea,axc,1,130518,rea_axc_run1_130518,BY,1600,P,M,white,Above,1,1,360,1,1,360,1,1,1,322202,327001,327361,322562,116395,22,1,205.807,206.167,210.606,210.966,28.418,260.015,491.611,231.619,463.216,694.829
rea,axc,1,130518,rea_axc_run1_130518,AX,4000,A,X,white,Above,1,2,429,1,1,264,1,2,1,329401,334216,334480,329830,116395,23,1,213.006,213.435,217.821,218.085,28.418,260.015,491.611,231.619,463.216,694.829
rea,axc,1,130518,rea_axc_run1_130518,BX,4000,P,X,red,Below,1,1,386,1,1,358,1,1,1,339016,343815,344173,339402,116395,24,1,222.621,223.007,227.42,227.778,28.418,260.015,491.611,231.619,463.216,694.829
rea,axc,1,130518,rea_axc_run1_130518,AX,2800,A,X,white,Above,1,2,344,1,1,348,1,2,1,378609,383409,383757,378953,116395,25,1,262.214,262.558,267.014,267.362,28.418,260.015,491.611,231.619,463.216,694.829
rea,axc,1,130518,rea_axc_run1_130518,Ang,1600,A,4,red,Below,1,,450,1,1,0,1,,1,387008,391807,0,387458,116395,26,1,270.613,271.063,275.412,-116.395,28.418,260.015,491.611,231.619,463.216,694.829
rea,axc,1,130518,rea_axc_run1_130518,Bng,1600,H,1,red,Below,1,,290,1,1,0,1,,1,394207,399006,0,394497,116395,27,1,277.812,278.102,282.611,-116.395,28.418,260.015,491.611,231.619,463.216,694.829
rea,axc,1,130518,rea_axc_run1_130518,AX,2800,A,X,white,Above,1,2,467,1,1,261,1,2,1,401406,406205,406466,401873,116395,28,1,285.011,285.478,289.81,290.071,28.418,260.015,491.611,231.619,463.216,694.829
rea,axc,1,130518,rea_axc_run1_130518,BY,1600,P,H,white,Above,1,1,457,1,1,477,1,1,1,409804,414604,415081,410261,116395,29,1,293.409,293.866,298.209,298.686,28.418,260.015,491.611,231.619,463.216,694.829
rea,axc,1,130518,rea_axc_run1_130518,AY,4000,A,N,red,Below,1,1,249,1,1,538,1,1,1,417003,421802,422340,417252,116395,30,1,300.608,300.857,305.407,305.945,28.418,260.015,491.611,231.619,463.216,694.829
rea,axc,1,130518,rea_axc_run1_130518,BY,2800,T,N,white,Above,1,1,342,1,1,368,1,1,1,426602,431401,431769,426944,116395,31,1,310.207,310.549,315.006,315.374,28.418,260.015,491.611,231.619,463.216,694.829
rea,axc,1,130518,rea_axc_run1_130518,BY,4000,D,T,white,Above,1,1,345,1,1,471,1,1,1,435017,439816,440287,435362,116395,32,1,318.622,318.967,323.421,323.892,28.418,260.015,491.611,231.619,463.216,694.829
rea,axc,1,130518,rea_axc_run1_130518,AX,4000,A,X,white,Above,1,2,387,1,1,388,1,2,1,444616,449415,449803,445003,116395,33,1,328.221,328.608,333.02,333.408,28.418,260.015,491.611,231.619,463.216,694.829
rea,axc,1,130518,rea_axc_run1_130518,AX,2800,A,X,white,Above,1,2,344,1,1,324,1,2,1,454214,459013,459337,454558,116395,34,1,337.819,338.163,342.618,342.942,28.418,260.015,491.611,231.619,463.216,694.829
rea,axc,1,130518,rea_axc_run1_130518,AY,4000,A,T,red,Below,1,1,341,1,1,540,1,1,1,462613,467412,467952,462954,116395,35,1,346.218,346.559,351.017,351.557,28.418,260.015,491.611,231.619,463.216,694.829
rea,axc,1,130518,rea_axc_run1_130518,BY,1600,H,T,white,Above,1,1,301,1,1,385,1,1,1,472211,477010,477395,472512,116395,36,1,355.816,356.117,360.615,361,28.418,260.015,491.611,231.619,463.216,694.829
rea,axc,1,130518,rea_axc_run1_130518,AX,2800,A,X,white,Above,1,2,323,1,1,347,0,1,0,479410,484209,484556,479733,116395,37,0,363.015,363.338,367.814,368.161,28.418,260.015,491.611,231.619,463.216,694.829
rea,axc,1,130518,rea_axc_run1_130518,BY,1600,D,N,white,Above,1,1,460,1,1,568,1,1,1,487809,492608,493176,488269,116395,38,1,371.414,371.874,376.213,376.781,28.418,260.015,491.611,231.619,463.216,694.829
rea,axc,1,130518,rea_axc_run1_130518,AX,2800,A,X,white,Above,1,2,372,1,1,272,1,2,1,495007,499807,500079,495379,116395,39,1,378.612,378.984,383.412,383.684,28.418,260.015,491.611,231.619,463.216,694.829
rea,axc,1,130518,rea_axc_run1_130518,Ang,1600,A,6,red,Below,1,,213,1,1,0,1,,1,503406,508205,0,503619,116395,40,1,387.011,387.224,391.81,-116.395,28.418,260.015,491.611,231.619,463.216,694.829
rea,axc,1,130518,rea_axc_run1_130518,BY,4000,T,M,white,Above,1,1,268,1,1,307,1,1,1,510605,515404,515711,510873,116395,41,1,394.21,394.478,399.009,399.316,28.418,260.015,491.611,231.619,463.216,694.829
rea,axc,1,130518,rea_axc_run1_130518,AX,2800,A,X,white,Above,1,2,376,1,1,316,1,2,1,520203,525003,525319,520579,116395,42,1,403.808,404.184,408.608,408.924,28.418,260.015,491.611,231.619,463.216,694.829
rea,axc,1,130518,rea_axc_run1_130518,BX,4000,M,X,red,Below,1,1,296,1,1,567,1,1,1,528602,533401,533968,528898,116395,43,1,412.207,412.503,417.006,417.573,28.418,260.015,491.611,231.619,463.216,694.829
rea,axc,1,130518,rea_axc_run1_130518,AX,2800,A,X,white,Above,1,2,327,1,1,335,1,2,1,538201,543017,543352,538528,116395,44,1,421.806,422.133,426.622,426.957,28.418,260.015,491.611,231.619,463.216,694.829
rea,axc,1,130518,rea_axc_run1_130518,BY,1600,N,U,white,Above,1,1,325,1,1,425,1,1,1,546616,551415,551840,546941,116395,45,1,430.221,430.546,435.02,435.445,28.418,260.015,491.611,231.619,463.216,694.829
rea,axc,1,130518,rea_axc_run1_130518,Bng,4000,P,2,red,Below,1,,380,1,1,0,1,,1,553815,558614,0,554195,116395,46,1,437.42,437.8,442.219,-116.395,28.418,260.015,491.611,231.619,463.216,694.829
rea,axc,1,130518,rea_axc_run1_130518,BY,4000,U,D,white,Above,1,1,387,1,1,522,1,1,1,563413,568212,568734,563800,116395,47,1,447.018,447.405,451.817,452.339,28.418,260.015,491.611,231.619,463.216,694.829
rea,axc,1,130518,rea_axc_run1_130518,BX,1600,F,X,red,Below,1,1,441,1,1,681,1,1,1,573012,577811,578492,573453,116395,48,1,456.617,457.058,461.416,462.097,28.418,260.015,491.611,231.619,463.216,694.829
rea,axc,1,130518,rea_axc_run1_130518,BX,2800,C,X,red,Below,1,1,360,1,1,396,1,1,1,610206,615005,615401,610566,116395,49,1,493.811,494.171,498.61,499.006,28.418,260.015,491.611,231.619,463.216,694.829
rea,axc,1,130518,rea_axc_run1_130518,BY,2800,C,D,white,Above,1,1,302,1,1,329,1,1,1,618604,623404,623733,618906,116395,50,1,502.209,502.511,507.009,507.338,28.418,260.015,491.611,231.619,463.216,694.829
rea,axc,1,130518,rea_axc_run1_130518,BY,2800,M,P,white,Above,1,1,304,1,1,308,1,1,1,627003,631802,632110,627307,116395,51,1,510.608,510.912,515.407,515.715,28.418,260.015,491.611,231.619,463.216,694.829
rea,axc,1,130518,rea_axc_run1_130518,BY,1600,D,T,white,Above,1,1,380,1,1,392,1,1,1,635402,640201,640593,635782,116395,52,1,519.007,519.387,523.806,524.198,28.418,260.015,491.611,231.619,463.216,694.829
rea,axc,1,130518,rea_axc_run1_130518,Bng,4000,T,8,red,Below,1,,318,1,1,0,1,,1,642601,647416,0,642919,116395,53,1,526.206,526.524,531.021,-116.395,28.418,260.015,491.611,231.619,463.216,694.829
rea,axc,1,130518,rea_axc_run1_130518,Ang,4000,A,4,red,Below,1,,367,1,1,0,1,,1,652216,657015,0,652583,116395,54,1,535.821,536.188,540.62,-116.395,28.418,260.015,491.611,231.619,463.216,694.829
rea,axc,1,130518,rea_axc_run1_130518,Ang,4000,A,2,red,Below,1,,337,1,1,0,1,,1,661814,666613,0,662151,116395,55,1,545.419,545.756,550.218,-116.395,28.418,260.015,491.611,231.619,463.216,694.829
rea,axc,1,130518,rea_axc_run1_130518,Bng,4000,N,2,red,Below,1,,365,1,1,0,1,,1,671413,676212,0,671778,116395,56,1,555.018,555.383,559.817,-116.395,28.418,260.015,491.611,231.619,463.216,694.829
rea,axc,1,130518,rea_axc_run1_130518,AX,1600,A,X,white,Above,1,2,358,1,1,283,1,2,1,681011,685810,686093,681369,116395,57,1,564.616,564.974,569.415,569.698,28.418,260.015,491.611,231.619,463.216,694.829
rea,axc,1,130518,rea_axc_run1_130518,BY,1600,M,P,white,Above,1,1,357,1,1,479,1,1,1,688210,693009,693488,688567,116395,58,1,571.815,572.172,576.614,577.093,28.418,260.015,491.611,231.619,463.216,694.829
rea,axc,1,130518,rea_axc_run1_130518,AX,2800,A,X,white,Above,1,2,333,1,1,292,1,2,1,695409,700208,700500,695742,116395,59,1,579.014,579.347,583.813,584.105,28.418,260.015,491.611,231.619,463.216,694.829
rea,axc,1,130518,rea_axc_run1_130518,BX,1600,C,X,red,Below,1,1,331,1,1,618,1,1,1,703807,708607,709225,704138,116395,60,1,587.412,587.743,592.212,592.83,28.418,260.015,491.611,231.619,463.216,694.829
rea,axc,1,130518,rea_axc_run1_130518,AX,1600,A,X,white,Above,1,2,488,1,1,372,1,2,1,711006,715806,716178,711494,116395,61,1,594.611,595.099,599.411,599.783,28.418,260.015,491.611,231.619,463.216,694.829
rea,axc,1,130518,rea_axc_run1_130518,AX,2800,A,X,white,Above,1,2,215,1,1,251,1,2,1,718205,723004,723255,718420,116395,62,1,601.81,602.025,606.609,606.86,28.418,260.015,491.611,231.619,463.216,694.829
rea,axc,1,130518,rea_axc_run1_130518,AY,4000,A,T,red,Below,1,1,472,1,1,530,1,1,1,726604,731403,731933,727076,116395,63,1,610.209,610.681,615.008,615.538,28.418,260.015,491.611,231.619,463.216,694.829
rea,axc,1,130518,rea_axc_run1_130518,AX,1600,A,X,white,Above,1,2,325,1,1,269,1,2,1,736202,741002,741271,736527,116395,64,1,619.807,620.132,624.607,624.876,28.418,260.015,491.611,231.619,463.216,694.829
rea,axc,1,130518,rea_axc_run1_130518,BY,2800,F,C,white,Above,1,1,350,1,1,343,1,1,1,743401,748217,748560,743751,116395,65,1,627.006,627.356,631.822,632.165,28.418,260.015,491.611,231.619,463.216,694.829
rea,axc,1,130518,rea_axc_run1_130518,AX,4000,A,X,white,Above,1,2,356,1,1,562,1,2,1,751816,756616,757178,752172,116395,66,1,635.421,635.777,640.221,640.783,28.418,260.015,491.611,231.619,463.216,694.829
rea,axc,1,130518,rea_axc_run1_130518,BY,1600,N,P,white,Above,1,1,257,1,1,468,1,1,1,761415,766214,766682,761672,116395,67,1,645.02,645.277,649.819,650.287,28.418,260.015,491.611,231.619,463.216,694.829
rea,axc,1,130518,rea_axc_run1_130518,AY,2800,A,D,red,Below,1,1,354,1,1,370,1,1,1,768614,773413,773783,768968,116395,68,1,652.219,652.573,657.018,657.388,28.418,260.015,491.611,231.619,463.216,694.829
rea,axc,1,130518,rea_axc_run1_130518,BY,2800,P,M,white,Above,1,1,312,1,1,485,1,1,1,777012,781812,782297,777324,116395,69,1,660.617,660.929,665.417,665.902,28.418,260.015,491.611,231.619,463.216,694.829
rea,axc,1,130518,rea_axc_run1_130518,AX,1600,A,X,white,Above,1,2,329,1,1,263,1,2,1,785411,790210,790473,785740,116395,70,1,669.016,669.345,673.815,674.078,28.418,260.015,491.611,231.619,463.216,694.829
rea,axc,1,130518,rea_axc_run1_130518,AX,4000,A,X,white,Above,1,2,285,1,1,265,1,2,1,792610,797409,797674,792895,116395,71,1,676.215,676.5,681.014,681.279,28.418,260.015,491.611,231.619,463.216,694.829
rea,axc,1,130518,rea_axc_run1_130518,BY,4000,D,N,white,Above,1,1,290,1,1,266,1,1,1,802208,807008,807274,802498,116395,72,1,685.813,686.103,690.613,690.879,28.418,260.015,491.611,231.619,463.216,694.829
rea,axc,2,130518,rea_axc_run2_130518,BX,4000,D,X,red,Below,1,1,300,1,1,374,1,1,1,90316,95115,95489,90616,59698,1,1,30.618,30.918,35.417,35.791,28.418,260.015,491.611,231.619,463.215,694.828
rea,axc,2,130518,rea_axc_run2_130518,BY,1600,U,F,white,Above,1,1,277,1,1,316,1,1,1,99914,104713,105029,100191,59698,2,1,40.216,40.493,45.015,45.331,28.418,260.015,491.611,231.619,463.215,694.828
rea,axc,2,130518,rea_axc_run2_130518,BY,1600,H,F,white,Above,1,1,332,1,1,318,1,1,1,107113,111912,112230,107445,59698,3,1,47.415,47.747,52.214,52.532,28.418,260.015,491.611,231.619,463.215,694.828
rea,axc,2,130518,rea_axc_run2_130518,AX,2800,A,X,white,Above,1,2,245,1,1,290,1,2,1,114312,119111,119401,114557,59698,4,1,54.614,54.859,59.413,59.703,28.418,260.015,491.611,231.619,463.215,694.828
rea,axc,2,130518,rea_axc_run2_130518,BY,4000,T,H,white,Above,1,1,227,1,1,344,1,1,1,122711,127510,127854,122938,59698,5,1,63.013,63.24,67.812,68.156,28.418,260.015,491.611,231.619,463.215,694.828
rea,axc,2,130518,rea_axc_run2_130518,AX,2800,A,X,white,Above,1,2,240,1,1,382,1,2,1,132309,137108,137490,132549,59698,6,1,72.611,72.851,77.41,77.792,28.418,260.015,491.611,231.619,463.215,694.828
rea,axc,2,130518,rea_axc_run2_130518,Bng,1600,N,5,red,Below,1,,404,1,1,0,1,,1,140708,145507,0,141112,59698,7,1,81.01,81.414,85.809,-59.698,28.418,260.015,491.611,231.619,463.215,694.828
rea,axc,2,130518,rea_axc_run2_130518,AX,1600,A,X,white,Above,1,2,289,1,1,280,1,2,1,147907,152706,152986,148196,59698,8,1,88.209,88.498,93.008,93.288,28.418,260.015,491.611,231.619,463.215,694.828
rea,axc,2,130518,rea_axc_run2_130518,Ang,4000,A,3,red,Below,1,,166,1,1,0,1,,1,155105,159905,0,155271,59698,9,1,95.407,95.573,100.207,-59.698,28.418,260.015,491.611,231.619,463.215,694.828
rea,axc,2,130518,rea_axc_run2_130518,Ang,2800,A,1,red,Below,1,,328,1,1,0,1,,1,164704,169520,0,165032,59698,10,1,105.006,105.334,109.822,-59.698,28.418,260.015,491.611,231.619,463.215,694.828
rea,axc,2,130518,rea_axc_run2_130518,BY,2800,D,C,white,Above,1,1,336,1,1,346,1,1,1,173119,177918,178264,173455,59698,11,1,113.421,113.757,118.22,118.566,28.418,260.015,491.611,231.619,463.215,694.828
rea,axc,2,130518,rea_axc_run2_130518,BY,4000,C,F,white,Above,1,1,277,1,1,301,1,1,1,181518,186317,186618,181795,59698,12,1,121.82,122.097,126.619,126.92,28.418,260.015,491.611,231.619,463.215,694.828
rea,axc,2,130518,rea_axc_run2_130518,AY,2800,A,P,red,Below,1,1,320,1,1,704,1,1,1,191116,195916,196620,191436,59698,13,1,131.418,131.738,136.218,136.922,28.418,260.015,491.611,231.619,463.215,694.828
rea,axc,2,130518,rea_axc_run2_130518,AX,4000,A,X,white,Above,1,2,285,1,1,492,1,2,1,199515,204314,204806,199800,59698,14,1,139.817,140.102,144.616,145.108,28.418,260.015,491.611,231.619,463.215,694.828
rea,axc,2,130518,rea_axc_run2_130518,BY,2800,C,N,white,Above,1,1,292,1,1,376,1,1,1,209113,213913,214289,209405,59698,15,1,149.415,149.707,154.215,154.591,28.418,260.015,491.611,231.619,463.215,694.828
rea,axc,2,130518,rea_axc_run2_130518,AX,4000,A,X,white,Above,1,2,310,1,1,420,1,2,1,217512,222311,222731,217822,59698,16,1,157.814,158.124,162.613,163.033,28.418,260.015,491.611,231.619,463.215,694.828
rea,axc,2,130518,rea_axc_run2_130518,BX,4000,T,X,red,Below,1,1,436,1,1,534,1,1,1,227111,231910,232444,227547,59698,17,1,167.413,167.849,172.212,172.746,28.418,260.015,491.611,231.619,463.215,694.828
rea,axc,2,130518,rea_axc_run2_130518,Bng,1600,T,9,red,Below,1,,337,1,1,0,1,,1,236709,241508,0,237046,59698,18,1,177.011,177.348,181.81,-59.698,28.418,260.015,491.611,231.619,463.215,694.828
rea,axc,2,130518,rea_axc_run2_130518,AX,2800,A,X,white,Above,1,2,292,1,1,344,1,2,1,243908,248707,249051,244200,59698,19,1,184.21,184.502,189.009,189.353,28.418,260.015,491.611,231.619,463.215,694.828
rea,axc,2,130518,rea_axc_run2_130518,BY,2800,D,U,white,Above,1,1,314,1,1,332,1,1,1,252307,257106,257438,252621,59698,20,1,192.609,192.923,197.408,197.74,28.418,260.015,491.611,231.619,463.215,694.828
rea,axc,2,130518,rea_axc_run2_130518,AX,1600,A,X,white,Above,1,2,292,1,1,468,1,2,1,260705,265504,265972,260997,59698,21,1,201.007,201.299,205.806,206.274,28.418,260.015,491.611,231.619,463.215,694.828
rea,axc,2,130518,rea_axc_run2_130518,BY,1600,N,H,white,Above,1,1,238,1,1,316,1,1,1,267904,272720,273036,268142,59698,22,1,208.206,208.444,213.022,213.338,28.418,260.015,491.611,231.619,463.215,694.828
rea,axc,2,130518,rea_axc_run2_130518,AX,1600,A,X,white,Above,1,2,346,1,1,355,1,2,1,275120,279919,280274,275466,59698,23,1,215.422,215.768,220.221,220.576,28.418,260.015,491.611,231.619,463.215,694.828
rea,axc,2,130518,rea_axc_run2_130518,AY,4000,A,C,red,Below,1,1,386,1,1,817,1,1,1,282318,288717,289534,282704,59698,24,1,222.62,223.006,229.019,229.836,28.418,260.015,491.611,231.619,463.215,694.828
rea,axc,2,130518,rea_axc_run2_130518,AX,4000,A,X,white,Above,1,2,359,1,1,417,1,2,1,321912,326711,327128,322271,59698,25,1,262.214,262.573,267.013,267.43,28.418,260.015,491.611,231.619,463.215,694.828
rea,axc,2,130518,rea_axc_run2_130518,Ang,4000,A,5,red,Below,1,,332,1,1,0,1,,1,331511,336310,0,331843,59698,26,1,271.813,272.145,276.612,-59.698,28.418,260.015,491.611,231.619,463.215,694.828
rea,axc,2,130518,rea_axc_run2_130518,AX,4000,A,X,white,Above,1,2,305,1,1,354,1,2,1,341109,345908,346262,341414,59698,27,1,281.411,281.716,286.21,286.564,28.418,260.015,491.611,231.619,463.215,694.828
rea,axc,2,130518,rea_axc_run2_130518,BY,1600,F,D,white,Above,1,1,510,1,1,220,1,1,1,350708,355507,355727,351218,59698,28,1,291.01,291.52,295.809,296.029,28.418,260.015,491.611,231.619,463.215,694.828
rea,axc,2,130518,rea_axc_run2_130518,BY,1600,H,C,white,Above,1,1,486,1,1,280,1,1,1,357906,362706,362986,358392,59698,29,1,298.208,298.694,303.008,303.288,28.418,260.015,491.611,231.619,463.215,694.828
rea,axc,2,130518,rea_axc_run2_130518,BY,1600,P,T,white,Above,1,1,319,1,1,343,1,1,1,365105,369904,370247,365424,59698,30,1,305.407,305.726,310.206,310.549,28.418,260.015,491.611,231.619,463.215,694.828
rea,axc,2,130518,rea_axc_run2_130518,Ang,2800,A,9,red,Below,1,,630,1,1,0,1,,1,372304,377120,0,372934,59698,31,1,312.606,313.236,317.422,-59.698,28.418,260.015,491.611,231.619,463.215,694.828
rea,axc,2,130518,rea_axc_run2_130518,BX,2800,H,X,red,Below,1,1,304,1,1,606,1,1,1,380719,385519,386125,381023,59698,32,1,321.021,321.325,325.821,326.427,28.418,260.015,491.611,231.619,463.215,694.828
rea,axc,2,130518,rea_axc_run2_130518,BY,1600,T,P,white,Above,1,1,231,1,1,363,1,1,1,389118,393917,394280,389349,59698,33,1,329.42,329.651,334.219,334.582,28.418,260.015,491.611,231.619,463.215,694.828
rea,axc,2,130518,rea_axc_run2_130518,AY,2800,A,M,red,Below,1,1,331,1,1,482,1,1,1,396317,401116,401598,396648,59698,34,1,336.619,336.95,341.418,341.9,28.418,260.015,491.611,231.619,463.215,694.828
rea,axc,2,130518,rea_axc_run2_130518,BX,4000,N,X,red,Below,1,1,378,1,1,478,1,1,1,404716,409515,409993,405094,59698,35,1,345.018,345.396,349.817,350.295,28.418,260.015,491.611,231.619,463.215,694.828
rea,axc,2,130518,rea_axc_run2_130518,AX,2800,A,X,white,Above,1,2,494,1,1,382,1,2,1,414314,419113,419495,414808,59698,36,1,354.616,355.11,359.415,359.797,28.418,260.015,491.611,231.619,463.215,694.828
rea,axc,2,130518,rea_axc_run2_130518,BY,4000,N,D,white,Above,1,1,201,1,1,277,1,1,1,422713,427512,427789,422914,59698,37,1,363.015,363.216,367.814,368.091,28.418,260.015,491.611,231.619,463.215,694.828
rea,axc,2,130518,rea_axc_run2_130518,Bng,4000,D,4,red,Below,1,,330,1,1,0,1,,1,432311,437110,0,432641,59698,38,1,372.613,372.943,377.412,-59.698,28.418,260.015,491.611,231.619,463.215,694.828
rea,axc,2,130518,rea_axc_run2_130518,BY,4000,P,C,white,Above,1,1,365,1,1,383,1,1,1,441910,446709,447092,442275,59698,39,1,382.212,382.577,387.011,387.394,28.418,260.015,491.611,231.619,463.215,694.828
rea,axc,2,130518,rea_axc_run2_130518,Bng,2800,C,6,red,Below,1,,315,1,1,0,1,,1,451508,456307,0,451823,59698,40,1,391.81,392.125,396.609,-59.698,28.418,260.015,491.611,231.619,463.215,694.828
rea,axc,2,130518,rea_axc_run2_130518,BY,1600,F,H,white,Above,1,1,331,1,1,422,1,1,1,459907,464706,465128,460238,59698,41,1,400.209,400.54,405.008,405.43,28.418,260.015,491.611,231.619,463.215,694.828
rea,axc,2,130518,rea_axc_run2_130518,AX,1600,A,X,white,Above,1,2,385,1,1,395,1,2,1,467106,471905,472300,467491,59698,42,1,407.408,407.793,412.207,412.602,28.418,260.015,491.611,231.619,463.215,694.828
rea,axc,2,130518,rea_axc_run2_130518,AX,4000,A,X,white,Above,1,2,419,1,1,285,1,2,1,474304,479104,479389,474723,59698,43,1,414.606,415.025,419.406,419.691,28.418,260.015,491.611,231.619,463.215,694.828
rea,axc,2,130518,rea_axc_run2_130518,AY,2800,A,F,red,Below,1,1,325,1,1,574,1,1,1,483920,488719,489293,484245,59698,44,1,424.222,424.547,429.021,429.595,28.418,260.015,491.611,231.619,463.215,694.828
rea,axc,2,130518,rea_axc_run2_130518,AX,1600,A,X,white,Above,1,2,0,0,,465,1,2,0,492318,497118,497583,0,59698,45,0,432.62,-59.698,437.42,437.885,28.418,260.015,491.611,231.619,463.215,694.828
rea,axc,2,130518,rea_axc_run2_130518,AX,1600,A,X,white,Above,1,2,184,1,1,0,0,,0,499517,509632,0,499701,59698,46,0,439.819,440.003,449.934,-59.698,28.418,260.015,491.611,231.619,463.215,694.828
rea,axc,2,130518,rea_axc_run2_130518,BY,2800,U,T,white,Above,1,1,0,0,,396,1,1,0,509699,511515,511911,0,59698,47,0,450.001,-59.698,451.817,452.213,28.418,260.015,491.611,231.619,463.215,694.828
rea,axc,2,130518,rea_axc_run2_130518,AX,2800,A,X,white,Above,1,2,303,1,1,456,1,2,1,515115,519914,520370,515418,59698,48,1,455.417,455.72,460.216,460.672,28.418,260.015,491.611,231.619,463.215,694.828
rea,axc,2,130518,rea_axc_run2_130518,BX,2800,H,X,red,Below,1,1,322,1,1,488,1,1,1,553509,558308,558796,553831,59698,49,1,493.811,494.133,498.61,499.098,28.418,260.015,491.611,231.619,463.215,694.828
rea,axc,2,130518,rea_axc_run2_130518,BY,2800,M,U,white,Above,1,1,347,1,1,336,1,1,1,561907,566706,567042,562254,59698,50,1,502.209,502.556,507.008,507.344,28.418,260.015,491.611,231.619,463.215,694.828
rea,axc,2,130518,rea_axc_run2_130518,BY,1600,M,N,white,Above,1,1,396,1,1,453,1,1,1,570306,575105,575558,570702,59698,51,1,510.608,511.004,515.407,515.86,28.418,260.015,491.611,231.619,463.215,694.828
rea,axc,2,130518,rea_axc_run2_130518,BY,4000,M,N,white,Above,1,1,573,1,1,330,1,1,1,577505,582304,582634,578078,59698,52,1,517.807,518.38,522.606,522.936,28.418,260.015,491.611,231.619,463.215,694.828
rea,axc,2,130518,rea_axc_run2_130518,BY,4000,H,C,white,Above,1,1,442,1,1,303,1,1,1,587120,591919,592222,587562,59698,53,1,527.422,527.864,532.221,532.524,28.418,260.015,491.611,231.619,463.215,694.828
rea,axc,2,130518,rea_axc_run2_130518,AX,1600,A,X,white,Above,1,2,220,1,1,432,1,2,1,596718,601518,601950,596938,59698,54,1,537.02,537.24,541.82,542.252,28.418,260.015,491.611,231.619,463.215,694.828
rea,axc,2,130518,rea_axc_run2_130518,AX,4000,A,X,white,Above,1,2,369,1,1,421,1,2,1,603917,608716,609137,604286,59698,55,1,544.219,544.588,549.018,549.439,28.418,260.015,491.611,231.619,463.215,694.828
rea,axc,2,130518,rea_axc_run2_130518,BY,2800,T,P,white,Above,1,1,342,1,1,357,1,1,1,613516,618315,618672,613858,59698,56,1,553.818,554.16,558.617,558.974,28.418,260.015,491.611,231.619,463.215,694.828
rea,axc,2,130518,rea_axc_run2_130518,AY,2800,A,U,red,Below,1,1,0,0,,415,1,1,0,621914,626714,627129,0,59698,57,0,562.216,-59.698,567.016,567.431,28.418,260.015,491.611,231.619,463.215,694.828
rea,axc,2,130518,rea_axc_run2_130518,BX,1600,N,X,red,Below,1,1,151,1,1,333,1,1,1,630313,635112,635445,630464,59698,58,1,570.615,570.766,575.414,575.747,28.418,260.015,491.611,231.619,463.215,694.828
rea,axc,2,130518,rea_axc_run2_130518,Ang,4000,A,7,red,Below,1,,708,1,1,488,0,1,0,637512,642311,642799,638220,59698,59,0,577.814,578.522,582.613,583.101,28.418,260.015,491.611,231.619,463.215,694.828
rea,axc,2,130518,rea_axc_run2_130518,AX,1600,A,X,white,Above,1,2,360,1,1,354,1,2,1,647110,651909,652263,647470,59698,60,1,587.412,587.772,592.211,592.565,28.418,260.015,491.611,231.619,463.215,694.828
rea,axc,2,130518,rea_axc_run2_130518,AX,4000,A,X,white,Above,1,2,463,1,1,408,1,2,1,654309,659108,659516,654772,59698,61,1,594.611,595.074,599.41,599.818,28.418,260.015,491.611,231.619,463.215,694.828
rea,axc,2,130518,rea_axc_run2_130518,AY,4000,A,U,red,Below,1,1,1138,1,1,585,1,1,1,663908,668707,669292,665046,59698,62,1,604.21,605.348,609.009,609.594,28.418,260.015,491.611,231.619,463.215,694.828
rea,axc,2,130518,rea_axc_run2_130518,AX,1600,A,X,white,Above,1,2,451,1,1,518,1,2,1,673506,678305,678823,673957,59698,63,1,613.808,614.259,618.607,619.125,28.418,260.015,491.611,231.619,463.215,694.828
rea,axc,2,130518,rea_axc_run2_130518,BY,1600,T,H,white,Above,1,1,467,1,1,442,1,1,1,680705,685504,685946,681172,59698,64,1,621.007,621.474,625.806,626.248,28.418,260.015,491.611,231.619,463.215,694.828
rea,axc,2,130518,rea_axc_run2_130518,Ang,2800,A,5,red,Below,1,,279,1,1,713,0,1,0,687904,692720,693433,688183,59698,65,0,628.206,628.485,633.022,633.735,28.418,260.015,491.611,231.619,463.215,694.828
rea,axc,2,130518,rea_axc_run2_130518,AX,1600,A,X,white,Above,1,2,359,1,1,279,1,2,1,696319,701118,701397,696678,59698,66,1,636.621,636.98,641.42,641.699,28.418,260.015,491.611,231.619,463.215,694.828
rea,axc,2,130518,rea_axc_run2_130518,BY,1600,D,C,white,Above,1,1,223,1,1,351,1,1,1,703518,708317,708668,703741,59698,67,1,643.82,644.043,648.619,648.97,28.418,260.015,491.611,231.619,463.215,694.828
rea,axc,2,130518,rea_axc_run2_130518,BY,2800,D,U,white,Above,1,1,350,1,1,292,1,1,1,710717,715516,715808,711067,59698,68,1,651.019,651.369,655.818,656.11,28.418,260.015,491.611,231.619,463.215,694.828
rea,axc,2,130518,rea_axc_run2_130518,Bng,4000,T,6,red,Below,1,,414,1,1,0,1,,1,719115,723915,0,719529,59698,69,1,659.417,659.831,664.217,-59.698,28.418,260.015,491.611,231.619,463.215,694.828
rea,axc,2,130518,rea_axc_run2_130518,AX,2800,A,X,white,Above,1,2,515,1,1,639,1,2,1,728714,733513,734152,729229,59698,70,1,669.016,669.531,673.815,674.454,28.418,260.015,491.611,231.619,463.215,694.828
rea,axc,2,130518,rea_axc_run2_130518,Bng,2800,P,4,red,Below,1,,268,1,1,0,1,,1,737113,741912,0,737381,59698,71,1,677.415,677.683,682.214,-59.698,28.418,260.015,491.611,231.619,463.215,694.828
rea,axc,2,130518,rea_axc_run2_130518,AX,4000,A,X,white,Above,1,2,308,1,1,311,1,2,1,745511,750310,750621,745819,59698,72,1,685.813,686.121,690.612,690.923,28.418,260.015,491.611,231.619,463.215,694.828
bas,axc,1,155938,bas_axc_run1_155938,Ang,4000,A,5,white,center,1,,633,1,1,0,1,,1,141292,146092,0,141925,110680,1,1,30.612,31.245,35.412,-110.68,28.413,260.01,491.608,231.614,463.229,694.826
bas,axc,1,155938,bas_axc_run1_155938,AX,4000,A,X,white,center,1,2,533,1,1,327,1,2,1,150891,155690,156017,151424,110680,2,1,40.211,40.744,45.01,45.337,28.413,260.01,491.608,231.614,463.229,694.826
bas,axc,1,155938,bas_axc_run1_155938,AY,2800,A,D,white,center,1,1,572,1,1,442,1,1,1,160489,165289,165731,161061,110680,3,1,49.809,50.381,54.609,55.051,28.413,260.01,491.608,231.614,463.229,694.826
bas,axc,1,155938,bas_axc_run1_155938,AX,4000,A,X,white,center,1,2,463,1,1,743,1,2,1,168888,173687,174430,169351,110680,4,1,58.208,58.671,63.007,63.75,28.413,260.01,491.608,231.614,463.229,694.826
bas,axc,1,155938,bas_axc_run1_155938,Bng,2800,C,6,white,center,1,,1012,1,1,0,1,,1,178487,183286,0,179499,110680,5,1,67.807,68.819,72.606,-110.68,28.413,260.01,491.608,231.614,463.229,694.826
bas,axc,1,155938,bas_axc_run1_155938,AX,1600,A,X,white,center,1,2,611,1,1,322,1,2,1,186885,191701,192023,187496,110680,6,1,76.205,76.816,81.021,81.343,28.413,260.01,491.608,231.614,463.229,694.826
bas,axc,1,155938,bas_axc_run1_155938,BY,2800,M,F,white,center,1,1,514,1,1,472,1,1,1,194101,198900,199372,194615,110680,7,1,83.421,83.935,88.22,88.692,28.413,260.01,491.608,231.614,463.229,694.826
bas,axc,1,155938,bas_axc_run1_155938,Ang,1600,A,7,white,center,1,,603,1,1,0,1,,1,202499,207299,0,203102,110680,8,1,91.819,92.422,96.619,-110.68,28.413,260.01,491.608,231.614,463.229,694.826
bas,axc,1,155938,bas_axc_run1_155938,AX,2800,A,X,white,center,1,2,441,1,1,450,1,2,1,209698,214498,214948,210139,110680,9,1,99.018,99.459,103.818,104.268,28.413,260.01,491.608,231.614,463.229,694.826
bas,axc,1,155938,bas_axc_run1_155938,BY,4000,D,T,white,center,1,1,525,1,1,544,1,1,1,218097,222896,223440,218622,110680,10,1,107.417,107.942,112.216,112.76,28.413,260.01,491.608,231.614,463.229,694.826
bas,axc,1,155938,bas_axc_run1_155938,BY,1600,C,M,white,center,1,1,461,1,1,347,1,1,1,227696,232495,232842,228157,110680,11,1,117.016,117.477,121.815,122.162,28.413,260.01,491.608,231.614,463.229,694.826
bas,axc,1,155938,bas_axc_run1_155938,Bng,1600,U,5,white,center,1,,548,1,1,0,1,,1,234894,239694,0,235442,110680,12,1,124.214,124.762,129.014,-110.68,28.413,260.01,491.608,231.614,463.229,694.826
bas,axc,1,155938,bas_axc_run1_155938,BY,1600,F,M,white,center,1,1,623,1,1,418,1,1,1,242093,246893,247311,242716,110680,13,1,131.413,132.036,136.213,136.631,28.413,260.01,491.608,231.614,463.229,694.826
bas,axc,1,155938,bas_axc_run1_155938,AX,2800,A,X,white,center,1,2,951,1,1,310,1,2,1,249292,254091,254401,250243,110680,14,1,138.612,139.563,143.411,143.721,28.413,260.01,491.608,231.614,463.229,694.826
bas,axc,1,155938,bas_axc_run1_155938,AY,4000,A,T,white,center,1,1,432,1,1,650,1,1,1,257691,262490,263140,258123,110680,15,1,147.011,147.443,151.81,152.46,28.413,260.01,491.608,231.614,463.229,694.826
bas,axc,1,155938,bas_axc_run1_155938,BX,4000,C,X,white,center,1,1,439,1,1,641,0,2,0,267289,272089,272730,267728,110680,16,0,156.609,157.048,161.409,162.05,28.413,260.01,491.608,231.614,463.229,694.826
bas,axc,1,155938,bas_axc_run1_155938,AX,2800,A,X,white,center,1,2,539,1,1,442,1,2,1,276888,281687,282129,277427,110680,17,1,166.208,166.747,171.007,171.449,28.413,260.01,491.608,231.614,463.229,694.826
bas,axc,1,155938,bas_axc_run1_155938,BY,2800,H,T,white,center,1,1,582,1,1,392,1,1,1,285287,290086,290478,285869,110680,18,1,174.607,175.189,179.406,179.798,28.413,260.01,491.608,231.614,463.229,694.826
bas,axc,1,155938,bas_axc_run1_155938,BY,2800,C,D,white,center,1,1,580,1,1,367,1,1,1,293685,298485,298852,294265,110680,19,1,183.005,183.585,187.805,188.172,28.413,260.01,491.608,231.614,463.229,694.826
bas,axc,1,155938,bas_axc_run1_155938,AX,1600,A,X,white,center,1,2,411,1,1,398,1,2,1,302101,306900,307298,302512,110680,20,1,191.421,191.832,196.22,196.618,28.413,260.01,491.608,231.614,463.229,694.826
bas,axc,1,155938,bas_axc_run1_155938,BY,4000,U,P,white,center,1,1,430,1,1,386,1,1,1,309300,314099,314485,309730,110680,21,1,198.62,199.05,203.419,203.805,28.413,260.01,491.608,231.614,463.229,694.826
bas,axc,1,155938,bas_axc_run1_155938,BY,4000,P,H,white,center,1,1,448,1,1,351,1,1,1,318898,323697,324048,319346,110680,22,1,208.218,208.666,213.017,213.368,28.413,260.01,491.608,231.614,463.229,694.826
bas,axc,1,155938,bas_axc_run1_155938,BX,1600,P,X,white,center,1,1,708,1,1,393,1,1,1,328497,333296,333689,329205,110680,23,1,217.817,218.525,222.616,223.009,28.413,260.01,491.608,231.614,463.229,694.826
bas,axc,1,155938,bas_axc_run1_155938,AX,1600,A,X,white,center,1,2,967,1,1,879,1,2,1,335695,340495,341374,336662,110680,24,1,225.015,225.982,229.815,230.694,28.413,260.01,491.608,231.614,463.229,694.826
bas,axc,1,155938,bas_axc_run1_155938,BY,4000,D,N,white,center,1,1,597,1,1,419,1,1,1,372890,377689,378108,373487,110680,25,1,262.21,262.807,267.009,267.428,28.413,260.01,491.608,231.614,463.229,694.826
bas,axc,1,155938,bas_axc_run1_155938,BX,1600,U,X,white,center,1,1,497,1,1,0,0,,0,382488,387288,0,382985,110680,26,0,271.808,272.305,276.608,-110.68,28.413,260.01,491.608,231.614,463.229,694.826
bas,axc,1,155938,bas_axc_run1_155938,AX,4000,A,X,white,center,1,2,477,1,1,384,1,2,1,389687,394486,394870,390164,110680,27,1,279.007,279.484,283.806,284.19,28.413,260.01,491.608,231.614,463.229,694.826
bas,axc,1,155938,bas_axc_run1_155938,AX,4000,A,X,white,center,1,2,461,1,1,321,1,2,1,399286,404085,404406,399747,110680,28,1,288.606,289.067,293.405,293.726,28.413,260.01,491.608,231.614,463.229,694.826
bas,axc,1,155938,bas_axc_run1_155938,AX,2800,A,X,white,center,1,2,382,1,1,354,1,2,1,408901,413700,414054,409283,110680,29,1,298.221,298.603,303.02,303.374,28.413,260.01,491.608,231.614,463.229,694.826
bas,axc,1,155938,bas_axc_run1_155938,AY,2800,A,N,white,center,1,1,473,1,1,386,1,1,1,417300,422099,422485,417773,110680,30,1,306.62,307.093,311.419,311.805,28.413,260.01,491.608,231.614,463.229,694.826
bas,axc,1,155938,bas_axc_run1_155938,BX,1600,F,X,white,center,1,1,336,1,1,973,1,1,1,425698,430497,431470,426034,110680,31,1,315.018,315.354,319.817,320.79,28.413,260.01,491.608,231.614,463.229,694.826
bas,axc,1,155938,bas_axc_run1_155938,BY,1600,F,C,white,center,1,1,469,1,1,420,1,1,1,432897,437696,438116,433366,110680,32,1,322.217,322.686,327.016,327.436,28.413,260.01,491.608,231.614,463.229,694.826
bas,axc,1,155938,bas_axc_run1_155938,BY,2800,P,M,white,center,1,1,400,1,1,382,1,1,1,440096,444895,445277,440496,110680,33,1,329.416,329.816,334.215,334.597,28.413,260.01,491.608,231.614,463.229,694.826
bas,axc,1,155938,bas_axc_run1_155938,BY,1600,T,N,white,center,1,1,373,1,1,347,1,1,1,448495,453294,453641,448868,110680,34,1,337.815,338.188,342.614,342.961,28.413,260.01,491.608,231.614,463.229,694.826
bas,axc,1,155938,bas_axc_run1_155938,Ang,4000,A,1,white,center,1,,458,1,1,0,1,,1,455694,460493,0,456152,110680,35,1,345.014,345.472,349.813,-110.68,28.413,260.01,491.608,231.614,463.229,694.826
bas,axc,1,155938,bas_axc_run1_155938,AX,2800,A,X,white,center,1,2,433,1,1,448,1,2,1,465292,470091,470539,465725,110680,36,1,354.612,355.045,359.411,359.859,28.413,260.01,491.608,231.614,463.229,694.826
bas,axc,1,155938,bas_axc_run1_155938,BY,1600,N,P,white,center,1,1,993,1,1,376,1,1,1,473691,478490,478866,474684,110680,37,1,363.011,364.004,367.81,368.186,28.413,260.01,491.608,231.614,463.229,694.826
bas,axc,1,155938,bas_axc_run1_155938,BY,4000,T,M,white,center,1,1,0,0,,334,1,1,0,480890,485689,486023,0,110680,38,0,370.21,-110.68,375.009,375.343,28.413,260.01,491.608,231.614,463.229,694.826
bas,axc,1,155938,bas_axc_run1_155938,AX,1600,A,X,white,center,1,2,554,1,1,495,1,2,1,490488,495287,495782,491042,110680,39,1,379.808,380.362,384.607,385.102,28.413,260.01,491.608,231.614,463.229,694.826
bas,axc,1,155938,bas_axc_run1_155938,Bng,4000,H,8,white,center,1,,415,1,1,0,1,,1,497687,502486,0,498102,110680,40,1,387.007,387.422,391.806,-110.68,28.413,260.01,491.608,231.614,463.229,694.826
bas,axc,1,155938,bas_axc_run1_155938,Ang,2800,A,9,white,center,1,,533,1,1,0,1,,1,507286,512085,0,507819,110680,41,1,396.606,397.139,401.405,-110.68,28.413,260.01,491.608,231.614,463.229,694.826
bas,axc,1,155938,bas_axc_run1_155938,BY,2800,N,U,white,center,1,1,393,1,1,1228,1,1,1,515701,520500,521728,516094,110680,42,1,405.021,405.414,409.82,411.048,28.413,260.01,491.608,231.614,463.229,694.826
bas,axc,1,155938,bas_axc_run1_155938,BY,4000,U,D,white,center,1,1,347,1,1,318,1,1,1,524100,528899,529217,524447,110680,43,1,413.42,413.767,418.219,418.537,28.413,260.01,491.608,231.614,463.229,694.826
bas,axc,1,155938,bas_axc_run1_155938,AY,1600,A,H,white,center,1,1,395,1,1,478,1,1,1,533698,538497,538975,534093,110680,44,1,423.018,423.413,427.817,428.295,28.413,260.01,491.608,231.614,463.229,694.826
bas,axc,1,155938,bas_axc_run1_155938,Bng,2800,P,4,white,center,1,,427,1,1,0,1,,1,540897,545696,0,541324,110680,45,1,430.217,430.644,435.016,-110.68,28.413,260.01,491.608,231.614,463.229,694.826
bas,axc,1,155938,bas_axc_run1_155938,AX,4000,A,X,white,center,1,2,405,1,1,969,1,2,1,549296,554095,555064,549701,110680,46,1,438.616,439.021,443.415,444.384,28.413,260.01,491.608,231.614,463.229,694.826
bas,axc,1,155938,bas_axc_run1_155938,AX,2800,A,X,white,center,1,2,425,1,1,310,1,2,1,558894,563694,564004,559319,110680,47,1,448.214,448.639,453.014,453.324,28.413,260.01,491.608,231.614,463.229,694.826
bas,axc,1,155938,bas_axc_run1_155938,AX,1600,A,X,white,center,1,2,323,1,1,479,1,2,1,567293,572092,572571,567616,110680,48,1,456.613,456.936,461.412,461.891,28.413,260.01,491.608,231.614,463.229,694.826
bas,axc,1,155938,bas_axc_run1_155938,Bng,4000,C,8,white,center,1,,711,1,1,0,1,,1,604487,609286,0,605198,110680,49,1,493.807,494.518,498.606,-110.68,28.413,260.01,491.608,231.614,463.229,694.826
bas,axc,1,155938,bas_axc_run1_155938,AX,1600,A,X,white,center,1,2,420,1,1,448,1,2,1,614086,618885,619333,614506,110680,50,1,503.406,503.826,508.205,508.653,28.413,260.01,491.608,231.614,463.229,694.826
bas,axc,1,155938,bas_axc_run1_155938,BY,4000,M,P,white,center,1,1,433,1,1,699,1,1,1,621285,626101,626800,621718,110680,51,1,510.605,511.038,515.421,516.12,28.413,260.01,491.608,231.614,463.229,694.826
bas,axc,1,155938,bas_axc_run1_155938,AX,4000,A,X,white,center,1,2,454,1,1,367,1,2,1,630900,635699,636066,631354,110680,52,1,520.22,520.674,525.019,525.386,28.413,260.01,491.608,231.614,463.229,694.826
bas,axc,1,155938,bas_axc_run1_155938,BY,4000,H,U,white,center,1,1,571,1,1,382,1,1,1,640498,645298,645680,641069,110680,53,1,529.818,530.389,534.618,535,28.413,260.01,491.608,231.614,463.229,694.826
bas,axc,1,155938,bas_axc_run1_155938,Bng,2800,D,4,white,center,1,,439,1,1,0,1,,1,650097,654896,0,650536,110680,54,1,539.417,539.856,544.216,-110.68,28.413,260.01,491.608,231.614,463.229,694.826
bas,axc,1,155938,bas_axc_run1_155938,AX,1600,A,X,white,center,1,2,495,1,1,371,1,2,1,658496,663295,663666,658991,110680,55,1,547.816,548.311,552.615,552.986,28.413,260.01,491.608,231.614,463.229,694.826
bas,axc,1,155938,bas_axc_run1_155938,AX,1600,A,X,white,center,1,2,510,1,1,412,1,2,1,665694,670494,670906,666204,110680,56,1,555.014,555.524,559.814,560.226,28.413,260.01,491.608,231.614,463.229,694.826
bas,axc,1,155938,bas_axc_run1_155938,AX,2800,A,X,white,center,1,2,740,1,1,375,1,2,1,672893,677693,678068,673633,110680,57,1,562.213,562.953,567.013,567.388,28.413,260.01,491.608,231.614,463.229,694.826
bas,axc,1,155938,bas_axc_run1_155938,BY,2800,M,F,white,center,1,1,756,1,1,407,0,2,0,681292,686091,686498,682048,110680,58,0,570.612,571.368,575.411,575.818,28.413,260.01,491.608,231.614,463.229,694.826
bas,axc,1,155938,bas_axc_run1_155938,AY,2800,A,N,white,center,1,1,461,1,1,1136,1,1,1,689691,694490,695626,690152,110680,59,1,579.011,579.472,583.81,584.946,28.413,260.01,491.608,231.614,463.229,694.826
bas,axc,1,155938,bas_axc_run1_155938,BY,1600,H,U,white,center,1,1,373,1,1,404,1,1,1,698089,702889,703293,698462,110680,60,1,587.409,587.782,592.209,592.613,28.413,260.01,491.608,231.614,463.229,694.826
bas,axc,1,155938,bas_axc_run1_155938,AX,1600,A,X,white,center,1,2,442,1,1,825,1,2,1,705288,710088,710913,705730,110680,61,1,594.608,595.05,599.408,600.233,28.413,260.01,491.608,231.614,463.229,694.826
bas,axc,1,155938,bas_axc_run1_155938,BY,4000,P,H,white,center,1,1,403,1,1,1026,1,1,1,712487,717286,718312,712890,110680,62,1,601.807,602.21,606.606,607.632,28.413,260.01,491.608,231.614,463.229,694.826
bas,axc,1,155938,bas_axc_run1_155938,BY,4000,U,D,white,center,1,1,961,1,1,724,1,1,1,722086,726885,727609,723047,110680,63,1,611.406,612.367,616.205,616.929,28.413,260.01,491.608,231.614,463.229,694.826
bas,axc,1,155938,bas_axc_run1_155938,AX,2800,A,X,white,center,1,2,346,1,1,453,1,2,1,731701,736500,736953,732047,110680,64,1,621.021,621.367,625.82,626.273,28.413,260.01,491.608,231.614,463.229,694.826
bas,axc,1,155938,bas_axc_run1_155938,BX,2800,M,X,white,center,1,1,810,1,1,387,1,1,1,740100,744899,745286,740910,110680,65,1,629.42,630.23,634.219,634.606,28.413,260.01,491.608,231.614,463.229,694.826
bas,axc,1,155938,bas_axc_run1_155938,BY,4000,F,M,white,center,1,1,521,1,1,499,1,1,1,748498,753298,753797,749019,110680,66,1,637.818,638.339,642.618,643.117,28.413,260.01,491.608,231.614,463.229,694.826
bas,axc,1,155938,bas_axc_run1_155938,BY,2800,T,M,white,center,1,1,342,1,1,309,1,1,1,758097,762896,763205,758439,110680,67,1,647.417,647.759,652.216,652.525,28.413,260.01,491.608,231.614,463.229,694.826
bas,axc,1,155938,bas_axc_run1_155938,Ang,2800,A,3,white,center,1,,471,1,1,0,1,,1,766495,771295,0,766966,110680,68,1,655.815,656.286,660.615,-110.68,28.413,260.01,491.608,231.614,463.229,694.826
bas,axc,1,155938,bas_axc_run1_155938,Ang,1600,A,7,white,center,1,,612,1,1,0,1,,1,774894,779693,0,775506,110680,69,1,664.214,664.826,669.013,-110.68,28.413,260.01,491.608,231.614,463.229,694.826
